imu_accel_x,imu_accel_y,imu_accel_z,imu_gyro_x,imu_gyro_y,imu_gyro_z,x,y,z,roll,pitch,yaw
-0.8286606669425964,1.5398055315017714,10.038201332092285,-0.14056405425071716,-0.20826126635074615,-0.03566645458340642,0.13961100578308105,-0.3115839958190918,1.524970531463623,0.013651881800150806,0.04422067300193045,-2.0165808823079345
-0.661234438419342,-0.2009449601173388,10.399529457092285,-0.04329673573374748,-0.26750901341438293,-0.03713116794824597,0.13997361063957214,-0.3115687668323517,1.5258307456970215,0.013149742890817244,0.035260408005561183,-2.0160355423315743
0.16759033501148224,0.538962483406068,8.783365249633789,-0.08316611498594284,-0.05220876634120941,-0.018779912963509553,0.14067183434963226,-0.31127306818962097,1.5267610549926758,0.012173125440784126,0.03200448580033609,-2.0161718498629573
-0.576528787612915,-0.16689722239971042,9.79415225982666,-0.024699028581380844,-0.07487112283706665,0.020954523235559474,0.14244356751441956,-0.3102421462535858,1.5288128852844238,0.010125757262196267,0.021125004862218622,-2.0161050811992682
0.5928194522857666,0.6207578182220471,9.953868865966797,-0.059255778789520264,-0.11173629760742188,-0.009406603872776018,0.14467261731624603,-0.30871492624282837,1.5341702699661255,0.007501029806194536,0.00827260755492612,-2.016005066364515
0.054504238069057465,0.4271506667137159,10.40307903289795,-0.06430082768201828,-0.09768754243850708,-0.022517329081892957,0.14517760276794434,-0.3083135187625885,1.5353202819824219,0.006514711638782482,0.003051428460257569,-2.015804516060774
0.4603601098060608,0.2662500739097607,9.673264503479004,-0.04404764994978905,-0.13018330931663513,-0.03177730739116667,0.1457967460155487,-0.3081674575805664,1.53693687915802,0.00512919171793465,-0.0020446875865178667,-2.0158584235531642
-0.9810260534286499,-0.8269854784011829,9.851761817932129,-0.03183365613222122,-0.1145477443933487,0.04926124215126039,0.1462913453578949,-0.30807992815971375,1.5380754470825195,0.00463306525747928,-0.004370237964293293,-2.0157782175292134
1.4792249202728271,-0.15575726330280182,10.066266059875488,-0.002822576556354761,-0.19321803748607635,0.010775844566524053,0.1467854231595993,-0.3079513609409332,1.5391181707382202,0.0030048229454460104,-0.011182729344019747,-2.0156472169117117
1.3376179933547974,-0.289368987083434,8.560765266418457,-0.06437220424413681,-0.13900677859783173,0.021029088646173495,0.14714136719703674,-0.3070732355117798,1.5404658317565918,0.0018960871724829533,-0.017354335259185213,-2.015383501008652
0.3732960820198059,-0.1725698113441456,9.378031730651855,-0.056620966643095016,0.001692164223641153,-0.03348604217171669,0.1472128927707672,-0.3059615194797516,1.5413484573364258,0.001488913276702981,-0.021898381098244723,-2.0153085828141286
-0.6909393072128296,1.0927660465240492,10.834537506103516,-0.13758020102977753,0.05765455961227416,-0.06705840677022935,0.14740055799484253,-0.3048976957798004,1.5421650409698486,0.0002005460532497574,-0.027462124216845157,-2.0151761969119484
0.047443829476833344,-0.7254874110221852,9.392084121704102,-0.15589387714862823,-0.06201995164155961,-0.04207855835556983,0.14778539538383484,-0.3035600781440735,1.5429986715316772,-0.0018568518342886773,-0.0329983908770229,-2.0147993505078885
0.11135877668857574,1.035900712013246,10.038955688476562,-0.12556862831115723,-0.06010087579488754,0.019794987514615066,0.14848491549491882,-0.303392231464386,1.5437254905700684,-0.0031319099446539636,-0.034382639156657985,-2.014598845690039
0.047545239329338074,0.4966284632682813,10.298713684082031,-0.1470552384853363,0.001646636985242361,-0.048601169139146805,0.14917413890361786,-0.3032875061035156,1.5444749593734741,-0.005793491218714929,-0.03565033511732718,-2.0144528843048346
0.31238651275634766,-0.9020643234252919,8.878325462341309,0.004711890127509832,-0.18077488243579865,0.017496984452009222,0.14980332553386688,-0.3031823933124542,1.545230746269226,-0.007290767550519965,-0.04105503243279818,-2.013630759470604
0.31238651275634766,-0.9020643234252919,8.878325462341309,0.004711890127509832,-0.18077488243579865,0.017496984452009222,0.15053938329219818,-0.30297908186912537,1.546140432357788,-0.0083928577314353,-0.04307294386892412,-2.0134046762112487
0.15855319797992706,0.2603397369384778,10.059097290039062,-0.10382025688886642,-0.19666056334972382,-0.04404732957482336,0.15099909901618958,-0.302809476852417,1.5467835664749146,-0.009226051692416033,-0.04840408590247305,-2.0125294338417867
0.5453150868415833,0.25134631991386536,9.752559661865234,-0.08002032339572906,-0.1173633262515068,0.015507715754210963,0.15141578018665314,-0.3020802438259125,1.5474395751953125,-0.010006367898128733,-0.0533553193679769,-2.0116438707358673
0.7558538317680359,0.5582854151725781,10.183112144470215,-0.036011483520269394,-0.10954400897026063,-0.0874873325228691,0.1519615352153778,-0.3010907471179962,1.5481637716293335,-0.010076513738770589,-0.056819221316104014,-2.010881477275984
-0.16164690256118774,0.3273563385009778,9.961474418640137,0.03821993246674538,-0.05386814475059509,0.01651169545948506,0.1523933708667755,-0.3004034757614136,1.548378348350525,-0.011151703616890782,-0.060470015394465636,-2.009984324054771
2.0763838291168213,-1.887814164161681,9.506301879882812,0.12477319687604904,0.03475679457187653,0.045894797891378396,0.15283805131912231,-0.2998656630516052,1.548262119293213,-0.011748733556938026,-0.0603847298649372,-2.009644213324905
0.9675519466400146,0.5880414247512827,8.262323379516602,-0.06580229103565216,-0.011855220422148711,-0.057068441063165665,0.1533777415752411,-0.2993822991847992,1.5481359958648682,-0.01167131379924619,-0.0603646209211715,-2.0101214600142385
1.237174153327942,0.12234876304864992,8.823064804077148,-0.10463250428438187,0.005529161542654042,0.032141558825969696,0.15384893119335175,-0.29904523491859436,1.5479694604873657,-0.0122059454339908,-0.06062823975456905,-2.010239206104341
0.7156606912612915,0.5401877760887158,10.204224586486816,-0.11471938341856003,-0.0013517602346837566,-0.036761388182640076,0.15442389249801636,-0.2985411286354065,1.5477665662765503,-0.014180624349539131,-0.05922983720673724,-2.0101692169394787
0.5134469866752625,-0.30327856540679815,9.412309646606445,-0.08134299516677856,-0.08393452316522598,-0.0423036478459835,0.15498307347297668,-0.29787370562553406,1.547965168952942,-0.01462941703696808,-0.05882288419302834,-2.0101639695383016
2.0886974334716797,0.8705984950065625,10.408951759338379,0.010509606450796127,0.0032711671665310955,0.0776757299900055,0.15576893091201782,-0.2969600558280945,1.5486118793487549,-0.01642210406979053,-0.06128087377957444,-2.010213354634201
-0.20036807656288147,0.49379926919937267,10.670166969299316,-0.05809314176440239,-0.22054249048233032,0.06329323351383212,0.15633423626422882,-0.29620784521102905,1.549138069152832,-0.019429733672838286,-0.061992661647943245,-2.0098837931150255
1.1275129318237305,0.08208943903446315,9.581560134887695,-0.06477832794189453,-0.13774046301841736,0.05269209295511247,0.1567087173461914,-0.29524660110473633,1.5497798919677734,-0.022059266198873502,-0.06419374007826736,-2.009585447332781
-0.12463352084159851,-0.7445538640022267,9.120555877685547,-0.09280083328485489,0.2288040667772293,-0.0935015678405762,0.15801915526390076,-0.2937701642513275,1.5506702661514282,-0.023043910143607266,-0.06138629834299021,-2.0101389348563092
1.7666432857513428,0.08842870593071114,10.60022258758545,-0.11173418909311295,0.18609006702899933,-0.054393406957387945,0.15982107818126678,-0.2924310863018036,1.5518091917037964,-0.020994654464624736,-0.05116184528070951,-2.012150487708886
-0.16237810254096985,-0.5882009863853441,10.685823440551758,-0.038296591490507126,0.2805027365684509,-0.136522650718689,0.16227427124977112,-0.29109030961990356,1.553115725517273,-0.01938422942440738,-0.04514690079142143,-2.0126193528540335
0.13354294002056122,0.4984140992164625,10.676959991455078,0.2936171889305115,0.1801491230726242,0.03310507908463476,0.16580727696418762,-0.2902071177959442,1.5563448667526245,-0.012261453152941963,-0.03189912805028547,-2.0148974800732136
0.09644816815853119,1.454999327659608,8.972508430480957,0.24114516377449036,0.08472336083650588,-0.12871567904949188,0.1690911203622818,-0.2897658050060272,1.5587021112442017,-0.002192306205498563,-0.021867376611031244,-2.0173527969816534
0.19238723814487457,0.7111391425132763,9.42238998413086,0.28185051679611206,0.15287601947784424,-0.032985396683216116,0.1727588027715683,-0.28929388523101807,1.5611821413040161,0.00515018880194238,-0.018934540087152577,-2.0184577798398884
-1.0088303089141846,0.04368431121111049,10.80718994140625,-0.10897078365087509,-0.01025415305048228,-0.05017153546214104,0.176702082157135,-0.28857100009918213,1.5638277530670166,0.011979299820413482,-0.015707436525115796,-2.019085405108038
-0.042053211480379105,0.8361569643020641,8.990997314453125,0.12258002161979675,0.12330626696348192,0.0835677683353424,0.18230800330638885,-0.2885911762714386,1.5661906003952026,0.008886487301754193,-0.013400240987268122,-2.019742034843823
-0.4823648929595947,0.6775740385055554,10.018278121948242,0.04360668361186981,0.17271700501441956,0.03239287808537481,0.18705329298973083,-0.2882530689239502,1.5676896572113037,0.008175942749090838,-0.011233279924898905,-2.0208632932456703
0.017798185348510742,1.0439723730087291,9.862655639648438,0.06967116892337799,0.14467312395572662,0.03834679350256918,0.19237270951271057,-0.2880750000476837,1.5685955286026,0.008923141820221869,-0.006146122616421712,-2.021727056926903
-0.6640284061431885,-0.4173573851585377,9.168209075927734,0.025735143572092056,0.042592130601406084,-0.1274004578590393,0.198670893907547,-0.2877621054649353,1.5706182718276978,0.0013411505971264693,-0.0011826950592608158,-2.0199597978152504
0.2541029453277588,3.0494799613952646,8.471989631652832,0.12008875608444214,-0.008311219513416268,0.18389873206615448,0.20357026159763336,-0.28805094957351685,1.5726770162582397,0.005897952653283993,-0.0007622601745685479,-2.019858420504459
-0.8686880469322205,0.21195808053016785,9.918488502502441,0.43090954422950745,0.0636747032403946,0.061792667955160134,0.20877088606357574,-0.2880651354789734,1.5747768878936768,0.014935826321703554,-0.0019393767801466548,-2.0188635783505093
0.8575995564460754,0.5911930203437816,9.380494117736816,0.3113977909088135,0.11042767018079759,0.10873033851385115,0.21608829498291016,-0.28788459300994873,1.5779829025268555,0.02904835434045988,0.0004423682135411756,-2.0173161097285983
-0.47721320390701294,0.3143956363201153,9.547958374023438,0.2045346200466156,0.11355973780155183,0.09417776018381117,0.22145910561084747,-0.28932419419288635,1.5799659490585327,0.03169611002956387,0.0017084874252776636,-2.0165302983295437
1.3690216541290283,-0.09257987141609081,9.093751907348633,0.17020750045776367,0.09283146262168884,-0.01961355283856393,0.22675947844982147,-0.2904842793941498,1.5814157724380493,0.03724465938613685,0.006669945803957402,-2.0152683492420342
-0.3785117268562317,-0.45763176679611084,10.189650535583496,0.04467521607875824,0.055640596896409995,0.05540869012475013,0.23389704525470734,-0.29170772433280945,1.5832068920135498,0.038711449432027166,0.0069461578924441105,-2.0148320331673477
-0.1341094672679901,0.14042837917804843,10.12489128112793,-0.10148168355226517,-0.04513034597039223,-0.00220910483039915,0.23936128616333008,-0.2923494875431061,1.5843076705932617,0.03718001506074572,0.006980053332516082,-2.0142769935140716
-0.20719939470291138,0.6023138761520398,9.7052640914917,-0.07004067301750183,-0.024208970367908478,-0.003959377761930225,0.24489928781986237,-0.29281264543533325,1.5852508544921875,0.03537643806393756,0.007979819631264014,-2.0125746131415845
0.026468776166439056,0.5310512185096753,10.416926383972168,0.18185144662857056,0.010390964336693285,-0.01850483939051628,0.25013864040374756,-0.29229921102523804,1.5867958068847656,0.039339443437272824,0.006566273433008558,-2.0122796985434257
-0.4726932942867279,0.46445074677467474,10.397096633911133,0.03649082034826279,0.0011045504361391057,-0.00890193972736597,0.2573360204696655,-0.2913265824317932,1.58901846408844,0.04210370402268818,0.005840627954564696,-2.012512977802821
-0.5063359141349792,0.3656262159347547,10.55614948272705,-0.14695049822330475,0.038788173347711556,-0.04378002509474755,0.2626899778842926,-0.29028257727622986,1.5913764238357544,0.04223513855413266,0.006824573905079288,-2.0125600955928937
-1.0467129945755005,0.609114229679109,11.01597785949707,-0.12387944757938385,0.11855678260326385,-0.03205598145723344,0.26789671182632446,-0.289470374584198,1.5939785242080688,0.03951889456722436,0.010096174966638503,-2.0122716155575184
-1.404823899269104,0.02195988036692277,10.998144149780273,0.013522122986614704,0.07414443790912628,-0.014945759437978276,0.2751968502998352,-0.28818032145500183,1.5972018241882324,0.038223821563897316,0.011673486128602067,-2.0124912786365874
-2.3528897762298584,0.25103124976158275,11.007518768310547,-0.09390269219875336,0.015349381603300571,0.005240730941295622,0.28086385130882263,-0.2868855893611908,1.5996131896972656,0.03556837612404274,0.013671244806865764,-2.012926189703148
1.4620685577392578,0.13248361647129164,8.602171897888184,-0.14578789472579956,0.18713770806789398,-0.03353622555732729,0.28653058409690857,-0.28552883863449097,1.601900339126587,0.030932838233317293,0.018421380753449804,-2.0124451682868716
0.06127177178859711,0.7795997858047499,10.552633285522461,-0.09684572368860245,0.1841336190700531,0.018791109323501566,0.29240837693214417,-0.28418636322021484,1.604206919670105,0.029478222502838564,0.020947005435695148,-2.012238979116621
0.008985787630081177,0.5542473793029796,9.165266036987305,0.12693941593170166,0.04346692189574242,0.04588420316576957,0.3007104694843292,-0.2824190557003021,1.6074192523956299,0.030652276852098998,0.024578508601136546,-2.0117154856054666
0.7565359473228455,0.28487807512283436,9.147346496582031,0.04990660399198532,-0.14889684319496155,-0.0035191192291676816,0.3069843053817749,-0.2814161777496338,1.6097246408462524,0.03264887883230007,0.02451847021895327,-2.012426501758418
0.39820510149002075,0.43951651453971985,9.958359718322754,-0.008070575073361397,-0.20597773790359497,-0.047976873815059634,0.3133313059806824,-0.28055524826049805,1.6125901937484741,0.033912170196050494,0.021225599185676465,-2.0133057778686765
1.4356253147125244,0.6082354187965404,9.173103332519531,0.02298354171216488,0.07784414291381835,-0.09507104754447938,0.3220430910587311,-0.279196560382843,1.6162083148956299,0.037398294316579386,0.01736156719908611,-2.0142532206372104
-0.7887253761291504,0.7337480783462536,9.034154891967773,0.11820038408041,0.25217318534851074,-0.04045933112502101,0.3286629915237427,-0.2780754864215851,1.6184109449386597,0.03947616859280801,0.023915996545676662,-2.016033831967024
1.1785423755645752,1.2736437320709242,10.532082557678223,-0.10398499667644501,0.14996077120304108,-0.10510694980621339,0.33531785011291504,-0.2769777476787567,1.6204513311386108,0.03895823499608829,0.027220481269726905,-2.0168733102112006
-1.2806631326675415,0.7530726194381726,10.405139923095703,0.2498636394739151,0.08374541252851486,0.049820497632026665,0.342223584651947,-0.2765149176120758,1.622603416442871,0.0396027845841808,0.03303528264920821,-2.0182831727583643
-1.227888822555542,0.13380873203277713,10.260449409484863,0.2834659516811371,-0.10399220138788223,0.03568266704678537,0.35160723328590393,-0.27617692947387695,1.6253077983856201,0.047028748486093876,0.03549460828358887,-2.0186516113853554
-0.9376958012580872,0.33840024471283076,9.408374786376953,0.2175104022026062,-0.07465770095586777,0.046574119478464134,0.358621746301651,-0.2759019732475281,1.6273282766342163,0.051392481456336354,0.0345659901074215,-2.01904363657642
0.011069856584072113,0.16677232086658592,9.273823738098145,0.15787160396575928,-0.03304170444607734,0.05371442064642907,0.3676823079586029,-0.2756156325340271,1.630158543586731,0.05523141567669596,0.034011118789090154,-2.0204293152945563
0.9897933602333069,0.5722960233688367,9.91883373260498,-0.08226726949214935,0.0860830172896385,-0.07733725756406785,0.3742249310016632,-0.27567699551582336,1.6324788331985474,0.05698062361721552,0.034887329867565806,-2.0219624390964386
-0.35676345229148865,0.5308319330215465,9.312976837158203,0.04873332753777504,0.08675996214151382,-0.05057967826724054,0.38053494691848755,-0.27585873007774353,1.6343984603881836,0.05696622372027362,0.03593650969534318,-2.0228181460719754
-1.0303149223327637,0.5536966919898999,10.21164608001709,-0.15206551551818848,-0.08604000508785249,-0.13266241550445557,0.38657867908477783,-0.27602577209472656,1.636635661125183,0.056236366332938686,0.03552878849242306,-2.0260696618210736
-0.5068929195404053,0.7801055312156691,10.824819564819336,-0.2164486199617386,-0.24603983759880066,-0.09438139945268628,0.39431247115135193,-0.27622872591018677,1.640380620956421,0.05158226852981111,0.02830204967510095,-2.0289892473200353
-1.2101391553878784,0.2455602884292615,10.270328521728516,-0.16580809652805328,-0.12432767450809479,0.011321987025439755,0.40007123351097107,-0.2762450873851776,1.6433322429656982,0.04770857287396442,0.02539475066716048,-2.0297690427286335
0.7315950393676758,0.9441538453102124,10.201615333557129,-0.09816327691078186,-0.11114125698804857,-0.05681844800710677,0.4058527648448944,-0.2763012945652008,1.6463096141815186,0.04405412492809338,0.023085931649194355,-2.0311884844268002
0.5645208358764648,0.3619201779365551,9.617362022399902,-0.07058579474687576,-0.06982406973838806,-0.037364188581705086,0.4134255349636078,-0.276669979095459,1.6504472494125366,0.04365552197230837,0.019331992782592195,-2.0332882652232485
-0.9419428706169128,-0.1502175182104098,10.401774406433105,-0.1432487666606903,0.043226726353168474,-0.09774766117334366,0.4193764328956604,-0.2766434848308563,1.6547913551330566,0.042868841254429406,0.018454588664952653,-2.0340539591407056
-0.2889706492424011,0.4504464566707624,10.332775115966797,-0.2326757311820984,0.20707397162914276,-0.07664595544338229,0.42555445432662964,-0.2765377163887024,1.659602165222168,0.03968966581815159,0.018592704670884894,-2.0354016269148265
-0.23332583904266357,0.025794900953770853,9.542121887207031,-0.16966891288757324,0.16894741356372833,-0.0790611580014229,0.4337925314903259,-0.2763478457927704,1.6658451557159424,0.03405348537224242,0.02749758697223552,-2.0366350791344323
0.4146914482116699,0.012133901938797206,9.491571426391602,-0.029472338035702705,0.07446864247322081,-0.08409284800291063,0.44001704454421997,-0.2764672040939331,1.6706297397613525,0.032801565237865114,0.029589479388968002,-2.0378934836537415
-0.3085845112800598,0.52217334508896,9.966568946838379,-0.13903331756591797,-0.06898370385169984,-0.07360551506280898,0.44632846117019653,-0.27669504284858704,1.6754848957061768,0.031591794027406105,0.026535194331754382,-2.0400670579126725
-0.5579513311386108,1.0725811719894423,10.228947639465332,-0.04354948550462723,-0.022915877401828762,0.021024547517299656,0.45239442586898804,-0.2768099904060364,1.6801739931106567,0.031000390891079355,0.02561753966090114,-2.040667661173484
-0.4695765972137451,1.0661303997039808,9.980483055114746,-0.0892435759305954,0.014472963288426397,-0.009320858865976335,0.46084582805633545,-0.27679508924484253,1.686927318572998,0.030888111925544425,0.025691572702748185,-2.040424069286751
0.11061881482601166,0.9660793542861951,9.923742294311523,0.22698447108268738,-0.02016720734536648,-0.015273639932274817,0.46725013852119446,-0.2770342230796814,1.6925119161605835,0.03491093561248641,0.027727288851672034,-2.040786787127907
-1.5310771465301514,0.6536225676536572,10.400140762329102,0.020180387422442436,-0.09798376262187958,-0.050135634839534746,0.4736844301223755,-0.27720096707344055,1.6992896795272827,0.038584999660856115,0.027976142565693658,-2.0410563994303517
0.651078462600708,1.3391463756561293,10.92385196685791,0.024386020377278328,-0.15038244426250458,0.027167631313204783,0.4824422001838684,-0.2776668667793274,1.7092000246047974,0.039887398934264386,0.025003996743436566,-2.0408440728923987
-1.9475772380828857,0.5854181051254285,10.18324089050293,-0.08009680360555649,0.05796490237116814,-0.014272877946496017,0.48928332328796387,-0.2780289649963379,1.716455101966858,0.04152199459874631,0.022422531841821147,-2.0406224867144003
0.7585459351539612,0.2410286366939557,10.020794868469238,-0.037598323076963425,0.03292375057935715,-0.015002468600869182,0.4965393841266632,-0.2783873975276947,1.723812222480774,0.040823583990813324,0.02797485103984068,-2.041263419496539
0.14217008650302887,0.2583647668361676,10.071938514709473,-0.07757753878831863,0.05562510713934898,-0.04753160104155541,0.5064053535461426,-0.2797943651676178,1.7333301305770874,0.040319880358422745,0.02962772217257199,-2.041835652256139
0.23629482090473175,0.2212574928998958,8.76173210144043,-0.03871713578701019,0.16303639113903046,-0.05645784363150599,0.5140343308448792,-0.2811095118522644,1.7402606010437012,0.036428402384931745,0.035961648349309115,-2.042632851933214
-1.6407684087753296,-0.18690176308154932,10.458659172058105,0.26561883091926575,0.04740230739116669,0.0053739952854812085,0.5218471884727478,-0.2824701964855194,1.7471776008605957,0.04156551205607524,0.04105127652687916,-2.0429996829025043
-1.299988031387329,0.11958551406860465,9.333019256591797,0.22928038239479065,-0.06043901666998864,-0.04933016374707221,0.5295429825782776,-0.2839890122413635,1.7546225786209106,0.04640248143044001,0.04127395927217521,-2.043607089658293
-1.3342310190200806,0.22677548229694497,10.752469062805176,0.08605111390352249,-0.023047711700201045,-0.0741419717669487,0.5395814180374146,-0.2861701250076294,1.7654788494110107,0.05144478197064396,0.04083117650619442,-2.045396750716196
-0.7249312996864319,0.2753628790378584,10.653822898864746,0.18037402629852295,-0.1433907300233841,0.011642140336334723,0.5469120144844055,-0.2883661687374115,1.7738840579986572,0.05605191093150893,0.03971328119607826,-2.0465868560928584
0.4454275369644165,0.2990434169769297,8.283245086669922,0.18009433150291443,-0.21757498383522034,-0.036602243781089755,0.5541495084762573,-0.2908563017845154,1.7822811603546143,0.05973956819631619,0.03661953574755604,-2.046915753272515
-0.8917436599731445,0.8785433173179638,8.768080711364746,-0.058843497186899185,-0.2956113815307617,0.04062004759907726,0.5634870529174805,-0.2933582365512848,1.7947357892990112,0.0621307682149469,0.02602566074947201,-2.0487452241327735
-0.5464598536491394,1.3109278678894056,10.5889892578125,-0.13995464146137238,-0.0690949559211731,-0.021014600992202752,0.5704879760742188,-0.29490554332733154,1.8041657209396362,0.05398682802908944,0.019949749468898482,-2.0511099890420317
-0.19761130213737488,0.9049871563911451,10.977211952209473,-0.1611156463623047,-0.004874163307249553,-0.054667554795742035,0.5777735710144043,-0.2961898446083069,1.8138800859451294,0.050511664232393796,0.01974852489354939,-2.0522360621414095
0.1878262162208557,1.35831379890442,9.796218872070312,-0.03288877010345459,0.23291784524917603,-0.038653958588838605,0.5854991674423218,-0.2971155643463135,1.8237611055374146,0.04704042204691641,0.027007068389211793,-2.0540480981045905
-1.2373474836349487,0.26125508546829346,10.012577056884766,0.06688269227743149,0.03525865077972411,-0.10041994601488113,0.5963681936264038,-0.2998691201210022,1.8382525444030762,0.04802190629834286,0.033974932045858316,-2.0563797819013603
-1.9133305549621582,0.17825005948543673,10.216316223144531,0.24495980143547058,-0.012838853523135187,-0.014111109077930449,0.6047703623771667,-0.30182895064353943,1.8495867252349854,0.051204525044772,0.034494755644552476,-2.05776249127961
-0.4390254020690918,0.16388840973377336,8.735918045043945,0.23761822283267975,-0.07807835191488267,-0.09263406693935393,0.6132721304893494,-0.3038069009780884,1.86100172996521,0.05962809295211384,0.03452326756958694,-2.06061208017857
-1.3484280109405518,-0.20678231120109444,9.223012924194336,0.3638126850128174,-0.1048082858324051,-0.08401211351156233,0.6242406964302063,-0.3061418831348419,1.876673936843872,0.07050848938137104,0.031104411529715343,-2.0631392456670166
-0.9545676708221436,0.6392582654953017,12.140937805175781,0.10428471118211746,-0.08954331278800964,-0.042055379599332796,0.6318340301513672,-0.30788326263427734,1.888525366783142,0.07624784902913097,0.027897682635588783,-2.064896377975696
0.05219709873199463,0.9494696259498608,9.999238014221191,-0.09907057136297226,0.14146113395690918,-0.09814301133155824,0.6392117738723755,-0.3088892102241516,1.9008617401123047,0.07540164768286124,0.028000541673459372,-2.0666188005821438
0.3824951648712158,-0.5488870739936819,8.206298828125,-0.2049941122531891,0.08777889609336852,-0.11554069817066194,0.6485036015510559,-0.30980953574180603,1.9176429510116577,0.06971853899065443,0.03164598559294608,-2.0690473203177007
-0.9595663547515869,-0.1745162010192859,9.896187782287598,-0.04731546714901924,-0.013399744406342513,-0.06290031224489212,0.6548551917076111,-0.31064102053642273,1.9310204982757568,0.06766809173615511,0.031973203531269534,-2.069715998921979
0.5872544050216675,0.7338301539421094,10.025609970092773,-0.17892570793628693,0.10844813287258147,-0.11063014715909959,0.6609632968902588,-0.31131675839424133,1.9442116022109985,0.06205141836684377,0.03469749003634872,-2.0722425002035494
0.6388453841209412,0.24539320170879497,10.815814971923828,-0.09606051445007324,0.0016208672896027541,-0.019774774089455605,0.6671170592308044,-0.3115648627281189,1.9577090740203857,0.05683050539565486,0.03572575674995654,-2.0742519766853
0.7226970791816711,0.6878091096878064,9.769972801208496,-0.01938893273472786,0.04195199906826017,-0.16220317780971527,0.675343930721283,-0.31141752004623413,1.975608468055725,0.05628415014726037,0.03628535549721455,-2.075634988124181
0.462361216545105,1.1348170042037975,9.317489624023438,0.14793181419372559,0.04280171915888786,-0.02187194116413594,0.681594729423523,-0.311063677072525,1.989013910293579,0.0603139701295906,0.03805037854874792,-2.0786441866086554
0.11503046751022339,0.17652048170566687,10.37807846069336,-0.12015438824892044,-0.11119402945041656,-0.04893583059310912,0.6890174150466919,-0.30954334139823914,2.007709503173828,0.06253207879754197,0.03572709570440179,-2.0798880717116854
0.14618800580501556,0.41003054380417003,10.81087875366211,-0.13945312798023224,-0.07512157410383224,-0.05406445637345313,0.6942420601844788,-0.3081815540790558,2.021700382232666,0.061093481781042465,0.03371852483140901,-2.0806360170759968
-0.6591899394989014,0.18448196351528295,10.49110221862793,-0.14222414791584015,0.07877271622419356,-0.07472520321607591,0.6994468569755554,-0.30657416582107544,2.0360050201416016,0.05804204750845851,0.03457744159513957,-2.0819126365727176
-0.4848881959915161,-0.24340973794460172,10.165903091430664,-0.24673286080360413,0.14472372829914093,-0.016406511887908,0.7042223215103149,-0.3053586483001709,2.0499699115753174,0.05390352765037986,0.03785383739876583,-2.0821064651055132
-0.9578439593315125,-0.01855937018990399,9.606955528259277,-0.32471776008605957,0.1206757128238678,-0.05621880665421487,0.7105938196182251,-0.3032689392566681,2.068788766860962,0.04946203135112885,0.03984093630062956,-2.0818958887733783
0.8504591584205627,0.6074105501174939,9.852537155151367,0.031302664428949356,-0.03806670382618904,-0.009444421157240862,0.7152884006500244,-0.3017975986003876,2.0827085971832275,0.04739589426037369,0.04269354795314499,-2.0817328244442597
-0.8322035670280457,0.3368650674819958,9.730037689208984,-0.1329212188720703,-0.10656382888555527,-0.009630776941776262,0.720072865486145,-0.29991641640663147,2.0969808101654053,0.047532425215880546,0.03976023772289743,-2.081657765111215
-1.001770257949829,0.28824013471603516,9.803694725036621,-0.13477645814418793,0.004395685624331244,0.06531582772731781,0.7248377799987793,-0.2979799807071686,2.1112778186798096,0.044999951771095156,0.03856883637835833,-2.0810876094577466
-2.2692203521728516,-0.09552950412034854,10.985554695129395,-0.28827133774757385,-0.014443701133131983,-0.01101392228156328,0.7314202189445496,-0.2945196330547333,2.130800485610962,0.03633174463732457,0.03849376862049411,-2.079493015453732
1.0583094358444214,0.5640466809272778,10.104291915893555,0.12594285607337952,-0.025865772739052766,0.06903514266014099,0.7363262176513672,-0.2923256456851959,2.1450369358062744,0.034037583506080396,0.03808474143361485,-2.07906824125059
-0.6977447271347046,0.31977450847625843,9.194745063781738,-0.026129217818379402,0.03435784205794333,-0.11887959390878677,0.742389440536499,-0.2888501286506653,2.1651084423065186,0.035952659859275614,0.03775323132425604,-2.0796728946087764
0.3548637628555298,0.2526320219039928,9.106820106506348,0.03691308572888374,-0.09768825024366379,0.025530757382512103,0.7467220425605774,-0.2862406075000763,2.1804070472717285,0.039703305112360365,0.03690019530849318,-2.080770297233405
-1.948966145515442,-0.19112667441367984,9.761411666870117,-0.04844173416495323,0.04936864972114562,-0.0404999926686287,0.7511034607887268,-0.28322267532348633,2.1960320472717285,0.04009336907265625,0.03531108331312166,-2.0812813576644276
0.29572737216949463,0.5715240240097057,9.104524612426758,0.07167866826057434,0.026312759146094322,0.004734325688332316,0.7554077506065369,-0.28032317757606506,2.21110463142395,0.039453415954323015,0.03623943851868654,-2.082078939258211
0.4203035235404968,-0.09494980424642445,9.577197074890137,-0.09504829347133636,0.01487950794398784,-0.06358245015144348,0.7613731026649475,-0.2776476740837097,2.2306597232818604,0.03764112809304845,0.039161646538070874,-2.083571404464368
0.1909014731645584,1.0566233396530165,10.545698165893555,-0.058829326182603836,-0.014638625085353846,0.047110747545957565,0.7658169269561768,-0.2756497859954834,2.2453792095184326,0.033984983220693786,0.039270476074912526,-2.084137161082883
0.2969017028808594,0.5339724421501172,10.142964363098145,0.03662583604454994,0.040478352457284934,0.050898108631372445,0.7702723145484924,-0.273733526468277,2.2599945068359375,0.03331150383394055,0.03987670042149368,-2.083660342406378
-0.5950438976287842,0.4903429150581374,11.146028518676758,0.23369812965393066,-0.20543672144412994,0.098545216023922,0.7748734354972839,-0.2718268632888794,2.2750818729400635,0.03695996274361091,0.03653324424848673,-2.0822927009318795
-2.0462307929992676,0.26247602701187256,10.169039726257324,0.10810025781393051,-0.16968196630477905,0.022495035082101843,0.7806494235992432,-0.2695876359939575,2.295328140258789,0.04233189692303678,0.03003310661232055,-2.0820425760222276
-1.9178086519241333,0.0940591767430318,10.227602005004883,-0.013556338846683502,-0.08127836138010025,0.019708508625626574,0.7848881483078003,-0.26751500368118286,2.3108091354370117,0.041404278942274914,0.028322827414165863,-2.0821080824691602
0.17793786525726318,0.6737256646156323,9.645030975341797,-0.07238978147506714,-0.0364583283662796,0.010086975060403352,0.7905775904655457,-0.2643895745277405,2.3319129943847656,0.035983369146438036,0.02737362767282685,-2.0821330195004952
-0.3751571774482727,0.2555123865604412,9.09835433959961,-0.13876652717590332,0.248245969414711,-0.06856082379817965,0.7948258519172668,-0.2615166902542114,2.3482577800750732,0.03291091096227344,0.030642530794744303,-2.081608348459535
0.08600085228681564,0.41417914628982655,9.281987190246582,-0.024585653096437454,0.28947314620018005,0.05398662388324734,0.798907458782196,-0.2585533559322357,2.3644065856933594,0.03253563189678183,0.034094066850623536,-2.0812870254410067
1.4371082782745361,0.3508544266223919,9.50932502746582,-0.19225864112377167,0.06902743130922318,0.036930531263351433,0.8030339479446411,-0.2553408145904541,2.380716562271118,0.02870175082986701,0.04318262229499752,-2.080314134188783
0.6029861569404602,0.7453864812850963,8.94089412689209,0.0054235514253377914,-0.057631410658359514,0.10879389941692354,0.8087749481201172,-0.25108101963996887,2.402709484100342,0.020730764070621802,0.04333320208178063,-2.07944793023858
-1.4081494808197021,0.33875647187233093,9.891444206237793,0.038840401917696,0.010676478967070593,0.11033368110656738,0.8130607008934021,-0.2493659257888794,2.419886827468872,0.01969415613417635,0.04290957659118316,-2.0789882351655233
-1.757110834121704,0.26089793443679926,9.372457504272461,0.359293133020401,-0.053180493414401994,0.09971004724502563,0.8178055286407471,-0.24737511575222015,2.437228202819824,0.029517453554093548,0.042481934915979444,-2.076180266189617
0.545458972454071,0.6243100166320815,11.358881950378418,0.3142513036727905,-0.03143149986863136,0.024607941508293155,0.824354887008667,-0.24467377364635468,2.4605116844177246,0.038682751869164735,0.04109650314891933,-2.074158375925165
1.7129192352294922,0.8812199234962474,8.839841842651367,0.0669972226023674,-0.003655259730294343,0.03215855732560158,0.8292593955993652,-0.2424328774213791,2.4784066677093506,0.0406704788577694,0.04009754921368786,-2.0732232573552856
-0.40423375368118286,0.5744045972824108,9.333468437194824,-0.14453469216823578,0.03783357143402099,-0.03679910674691201,0.8343150019645691,-0.24017108976840973,2.496553659439087,0.04009385654362892,0.038643865437049715,-2.071338952109892
0.2195160835981369,0.655649006366731,9.934319496154785,0.00600110087543726,0.1469033658504486,0.03735231980681417,0.8388472199440002,-0.2375592589378357,2.5145676136016846,0.040701860275997155,0.04065005942485037,-2.0692577912994277
0.6330006718635559,0.20666104555130113,8.755114555358887,-0.005371510982513428,0.17033396661281586,0.016315525397658327,0.8451544046401978,-0.23372186720371246,2.538707733154297,0.04101062528665555,0.04376936394775838,-2.0682227364921046
-0.5379835367202759,1.0465127229690565,10.089594841003418,0.09069937467575073,0.2898624539375305,0.10474986582994457,0.8502417206764221,-0.23030787706375122,2.5561182498931885,0.03924085771050644,0.051864619208449494,-2.0662514908960983
-0.06420476734638214,0.26596489548683244,6.388649940490723,0.11617852002382278,0.3135490417480469,0.044794626533985096,0.8554848432540894,-0.22656050324440002,2.5713839530944824,0.041157482301374324,0.06786636247852995,-2.0639920435793244
-0.7572771906852722,0.24758358299732292,6.9062676429748535,0.05415917560458183,0.26470744609832764,-0.05870803818106655,0.8626649975776672,-0.22172288596630096,2.5874836444854736,0.043627437052285334,0.07489011342139079,-2.062789586741339
-0.2618107497692108,-1.0728896856307975,6.702120304107666,0.9857301712036133,0.38442713022232045,-1.0457695722579956,0.8682118654251099,-0.21829266846179962,2.596710205078125,0.05763313990003687,0.08674566240757517,-2.0891485411583353
-1.8881268501281738,-0.2151520997285832,8.931005477905273,1.370273232460022,0.515177011489868,-1.0526771545410156,0.8739121556282043,-0.21541109681129456,2.604666233062744,0.10684540324078395,0.10950812698421131,-2.1302579348513975
-0.39407074451446533,1.4538358449935924,8.348315238952637,1.1865041255950928,0.41422072052955616,-1.00483238697052,0.8785885572433472,-0.21310724318027496,2.611954689025879,0.1297829273017104,0.12120030506417737,-2.1507464417401327
-0.2917628586292267,0.10084924846887712,10.129043579101562,0.5938214063644409,0.058065719902515286,-1.025963544845581,0.882957398891449,-0.21011996269226074,2.620568037033081,0.15946368936140892,0.13664896038198787,-2.191860769772126
0.6718377470970154,-0.04539435356855293,8.082758903503418,0.145191490650177,-0.06431405991315856,-1.0948277711868286,0.884459376335144,-0.20796871185302734,2.6260595321655273,0.16489082214332323,0.1430623209848201,-2.2312011283625925
-0.4984027147293091,0.6575682163238538,9.577693939208984,0.017667178064584732,-0.19542233645916,-1.0746532678604126,0.8841580748558044,-0.20544609427452087,2.6324071884155273,0.16077594410078658,0.1434475769006156,-2.2600212343544603
0.13805724680423737,0.8353894948959362,9.27725887298584,-0.06138262152671814,-0.2091811299324037,-1.093545913696289,0.8825294375419617,-0.20356866717338562,2.6362662315368652,0.151430576974548,0.14103481031819481,-2.3012118257170355
-1.1045527458190918,0.32779246568679926,9.649986267089844,-0.10939842462539673,-0.12282279878854765,-1.1130257844924927,0.8800404667854309,-0.20152154564857483,2.6393933296203613,0.13698264274331964,0.139939213393552,-2.3545455981461094
0.15369673073291779,0.9241998791694652,9.129581451416016,-0.3421081304550171,-0.25467526912689226,-1.2300455570220947,0.8765332698822021,-0.199705570936203,2.641688823699951,0.13054505268181749,0.1394937311692095,-2.372672099434402
-0.7463755011558533,0.2519111633300793,9.408835411071777,-0.16821154952049255,-0.13844099640846266,-1.1837409734725952,0.8698735237121582,-0.19587667286396027,2.645266532897949,0.11592029982552818,0.13784118714001542,-2.4209921366994656
-1.427220344543457,0.5485508441925062,10.517993927001953,-0.0275943074375391,-0.05642810836434379,-1.1958661079406738,0.8642141819000244,-0.19293983280658722,2.647399425506592,0.10784586478963074,0.1412321130401808,-2.468445351689513
-0.5241151452064514,0.3453231155872356,8.863861083984375,0.00023483962286263704,-0.07544615119695677,-1.1558152437210083,0.8575310111045837,-0.19035704433918,2.6489832401275635,0.10430536762257216,0.1429046037580805,-2.49268064119286
-1.0741021633148193,0.19609810411930206,10.05221176147461,0.09099220484495163,-0.2780675888061525,-1.1572487354278564,0.8497592806816101,-0.1873505413532257,2.650627613067627,0.0972461495122134,0.14055406864784367,-2.542328486249602
-2.6792798042297363,-0.181893631815909,10.883766174316406,0.04420318827033043,-0.2733957171440126,-1.2228718996047974,0.8377071619033813,-0.18227311968803406,2.6531715393066406,0.09221856419225874,0.13501399001954448,-2.5924245484873074
0.558009684085846,0.8604040741920482,8.730782508850098,0.0679025873541832,-0.22944422066211714,-1.1623637676239014,0.8281002640724182,-0.17835265398025513,2.6553008556365967,0.09008620297049556,0.1327771275455934,-2.6174072857258532
-0.3929704427719116,0.9436061382293713,9.96086597442627,-0.23567292094230652,-0.014618759974837438,-1.106789231300354,0.8143012523651123,-0.1731051504611969,2.6574513912200928,0.08125656497024406,0.13322562993694517,-2.66243247401186
-1.6554509401321411,0.26529544591903803,9.72322940826416,-0.35738620162010193,-0.05566968396306052,-1.117604374885559,0.80259108543396,-0.16800600290298462,2.658907413482666,0.06489108590304865,0.13608769237650134,-2.7069936582481753
-2.2692995071411133,-0.12018360942602029,10.564074516296387,-0.3445036709308624,-0.03855002298951163,-1.150050401687622,0.790063202381134,-0.1625024676322937,2.660487413406372,0.05560843723060285,0.13565558565106497,-2.7296883893852972
-2.3360769748687744,0.6997865438461317,11.164599418640137,-0.02820863574743271,0.09820961207151402,-0.8764467835426331,0.7775574922561646,-0.1572870910167694,2.662134885787964,0.044268421284919084,0.1361757368309,-2.7676472440122
-0.4378587305545807,0.4684908092021954,9.370701789855957,0.09742063283920288,0.2114662081003188,-0.8715684413909912,0.7598702907562256,-0.15106341242790222,2.663663387298584,0.040624563870645766,0.1453295345840334,-2.8031850467328625
-0.5023738741874695,0.6138789057731641,10.375897407531738,-0.015941031277179718,0.04564706236124028,-0.8657448291778564,0.7460318207740784,-0.14597849547863007,2.664764404296875,0.03912115662322376,0.1489508586867937,-2.8204745569332683
-1.4282742738723755,0.2402450740337384,10.068167686462402,-0.07801952213048935,0.047203864902257836,-0.6954408884048462,0.7312763333320618,-0.1410634070634842,2.665846109390259,0.036244237733114616,0.15073255688997844,-2.8478949390115256
-1.3621882200241089,-0.12433495372533668,10.642759323120117,0.03371879830956459,-0.050854202359914856,-0.5976091027259827,0.7158247232437134,-0.13649633526802063,2.667023181915283,0.03237593221093083,0.15127054092729142,-2.874645919729359
-2.1108200550079346,-0.08102317154407358,11.676528930664062,-0.12981188297271729,-0.15426272153854378,-0.6315368413925171,0.6945512294769287,-0.13065595924854279,2.6694998741149902,0.029816802444861987,0.14940381910583028,-2.887265853874652
-2.0932037830352783,-0.43319600820541254,10.639721870422363,-0.15566948056221008,-0.1956904977560044,-0.4257813096046448,0.6779106855392456,-0.12659408152103424,2.6716034412384033,0.02017135373613528,0.14529204897527148,-2.9085758699721187
-1.5303761959075928,-0.18247844278812284,10.231730461120605,-0.10777019709348679,-0.14107277989387518,-0.4850618839263916,0.6564561724662781,-0.12038269639015198,2.674103021621704,0.009857506853736906,0.14068335126404338,-2.928388489532923
0.6351860761642456,0.40961945056915394,9.184967041015625,0.013420957140624523,-0.08303073793649679,-0.5086625218391418,0.639873206615448,-0.11628720909357071,2.6762309074401855,0.007709025053037512,0.13922699709360167,-2.9384815150203183
-0.5884365439414978,1.5702939033508312,8.687699317932129,0.2722700834274292,-0.035636637359857566,-0.04198759421706199,0.6226378083229065,-0.11266390979290009,2.6786041259765625,0.012813196460828954,0.13827731632988255,-2.948013497662735
-0.5519232749938965,0.4247745275497449,9.935763359069824,-0.06916975975036621,-0.019421942532062544,-0.11564891040325165,0.6043264269828796,-0.10893277078866959,2.680802345275879,0.01655550346986904,0.13626829151780423,-2.9510302065310197
-0.4559611678123474,-0.09928625822067146,9.435297012329102,-0.035197969526052475,-0.12366581708192827,-0.09375672787427901,0.579417884349823,-0.10422743111848831,2.6845169067382812,0.016831833583057353,0.13488542777132573,-2.952147780260721
-2.1750733852386475,1.0629682540893568,11.245355606079102,-0.09622558206319809,0.011851712130010118,-0.08131352066993713,0.560417890548706,-0.10075126588344574,2.687910318374634,0.01718695142174616,0.13448801187870899,-2.95450051827869
-0.9794982671737671,0.39984500408172735,10.242956161499023,-0.3488521873950958,0.01685943081974983,-0.028340648859739307,0.5405514240264893,-0.09698138386011124,2.6915318965911865,0.011513269847774552,0.13465700035939662,-2.9553526894871793
0.7128708362579346,0.15870088338852043,9.370591163635254,-0.3419453501701355,0.08316154032945633,-0.05517771840095521,0.5123255848884583,-0.0916331335902214,2.696718215942383,0.005436193994174367,0.13516958894183229,-2.9556240359831056
-1.3953781127929688,-0.9023268818855273,10.083440780639648,-0.15953515470027924,-0.08008679747581482,0.04135942831635476,0.49117380380630493,-0.08789999037981033,2.7015514373779297,-0.0060739226153474,0.1357298251084047,-2.9563429094604103
0.12255816906690598,0.26881760358810536,9.249083518981934,0.16162431240081787,0.011368244886398317,0.014802703633904455,0.4693875312805176,-0.08483512699604034,2.7063207626342773,-0.00958070329150445,0.13546481371349356,-2.957375235049149
-1.4862574338912964,0.4105823040008558,10.696901321411133,0.15827952325344086,-0.04022188112139701,0.03478565067052842,0.4401647448539734,-0.08166446536779404,2.7116525173187256,-0.008330596333566956,0.1354808974535087,-2.9573519596980162
-1.2331416606903076,0.01518218219280383,11.44157886505127,0.12197607010602951,-0.18804283440113068,-0.012815785594284512,0.41807737946510315,-0.07961377501487732,2.715914487838745,-0.0024707358323985866,0.1292667933419107,-2.9564863305719835
-0.5396400690078735,0.5263174176216138,10.265935897827148,0.07540187239646912,-0.2537035644054413,0.0616477578878403,0.3955265283584595,-0.07799656689167023,2.7203338146209717,0.002002040701713169,0.12033560814649016,-2.9557930887387336
-0.42841053009033203,0.24034941196441775,10.275093078613281,0.12409982085227966,-0.21002282202243805,0.03743454441428187,0.37276190519332886,-0.0764911100268364,2.7250828742980957,0.0038732640931872925,0.11507421493940666,-2.955170662599104
-1.9723427295684814,-0.06485000997781627,10.29442024230957,-0.07650765031576157,-0.1309884488582611,-0.04220231249928473,0.3407139182090759,-0.07502954453229904,2.7318665981292725,0.006071607958681532,0.1083880788217652,-2.95403893232848
-0.9675154685974121,0.0839850902557385,9.72005844116211,-0.1772497147321701,-0.0038642107974737887,-0.0035357328597456212,0.3165093958377838,-0.07404100894927979,2.7368345260620117,0.004575771997869821,0.10650572536714163,-2.9532889167324328
-1.1266446113586426,0.6615512371063245,10.10386848449707,-0.12186423689126968,-0.005040534771978849,0.051945142447948456,0.2923019826412201,-0.0728948563337326,2.741748094558716,0.0010348651140355827,0.1074274695227605,-2.9534080560565097
-1.478009819984436,-0.15230177342891577,9.494424819946289,-0.24635633826255798,-0.009472812525928026,-0.043052930384874344,0.25959059596061707,-0.07137706130743027,2.748103141784668,-0.00825042712358845,0.10747671570820694,-2.953546492592952
-1.2107166051864624,0.07540164142847174,9.196537971496582,0.06778828054666519,0.07577645033597946,-0.007708324119448671,0.23464180529117584,-0.06994371861219406,2.752573013305664,-0.010297454232714533,0.10806151240688489,-2.952761681705535
-0.4957789182662964,-0.25713977217674133,9.89564323425293,0.04358621686697006,0.049830362200737,0.0024592457339167534,0.2093062549829483,-0.06900052726268768,2.756610870361328,-0.008469578218202146,0.10852816421184217,-2.9519996826388604
0.4474259912967682,0.8199154138565076,10.208456039428711,0.0031739072874188423,-0.15864495933055878,-0.004091133829206209,0.18373122811317444,-0.06853219121694565,2.7606611251831055,-0.0024607477489958056,0.10467306329485271,-2.949913112599478
-0.8837777972221375,-0.16570270061492803,9.493687629699707,0.00017725524958223104,-0.2501525282859802,0.0687123239040375,0.14894838631153107,-0.06730923056602478,2.7663915157318115,-0.0014245397446524385,0.09723975115400882,-2.948649870098421
-0.0968451052904129,0.32272100448608515,9.513108253479004,-0.04997852072119713,-0.09421379119157791,0.04136254638433458,0.12279064953327179,-0.06600288301706314,2.771132230758667,-0.0025404514961596737,0.09319189809117623,-2.947858252978999
0.9632837772369385,0.8080075383186351,8.657716751098633,0.0853753462433815,0.09468044340610506,0.08882868289947508,0.09668594598770142,-0.06509310007095337,2.775599956512451,-0.0018460532900225098,0.0913615911780773,-2.946155788262445
-0.09979990869760513,0.46528378129005543,9.178972244262695,-0.034048303961753845,0.17995381355285645,-0.015326784923672699,0.06206135451793671,-0.06413086503744125,2.781080484390259,-0.0004951775766518004,0.09646982167198793,-2.945175796141432
-0.991426944732666,-0.10995766520500067,9.526707649230957,0.06729823350906372,0.0550779402256012,0.04138289019465446,0.03571249544620514,-0.063770592212677,2.7849619388580322,-0.0002287117838159035,0.09877079832167548,-2.9449751479766757
-0.97023606300354,0.09880750626325721,9.330652236938477,0.0017364667728543282,0.05661243945360184,-0.010142819024622447,0.009526335634291172,-0.06354337185621262,2.7893950939178467,-0.0014655382872787476,0.09841068273135047,-2.9448121612141063
0.3200785219669342,0.4499254524707806,9.602336883544922,0.16885843873023987,0.015824817121028904,0.021929845213890072,-0.02527477778494358,-0.06361600756645203,2.7955362796783447,0.002572824834037605,0.09837566483043626,-2.943603217812729
0.32405659556388855,0.4466406106948865,9.823639869689941,0.11752860993146896,0.04688463732600212,0.0062025533989071785,-0.05138745903968811,-0.06392291188240051,2.80045223236084,0.005276798923943239,0.09824058338332739,-2.942920360225834
-0.18176499009132385,-0.09017287939786789,10.002374649047852,-0.05843093618750572,0.01439528726041317,0.002026951173320411,-0.07787274569272995,-0.06430824846029282,2.805427074432373,0.005756973320192651,0.09708022747116256,-2.941602242265114
-2.8100574016571045,-0.1056122183799729,12.04401683807373,-0.20669223368167877,-0.06304588168859482,-0.03862560540437698,-0.10589687526226044,-0.06350784003734589,2.8113887310028076,0.0005748080598095553,0.09509884923189416,-2.941105628680818
-0.6599275469779968,0.1804944425821316,9.502100944519043,-0.01240449771285057,0.047434236854314804,0.017498655244708054,-0.1433124542236328,-0.06317999958992004,2.8192667961120605,-0.0013572186041804551,0.09474323461013492,-2.940844130423829
-1.7418400049209595,0.4342593252658856,10.134482383728027,0.09043483436107635,0.15034878253936768,0.08377892524003981,-0.1715071201324463,-0.0632438063621521,2.824638843536377,-0.00018184474739403516,0.09886475482693331,-2.940575376232028
-0.5540438890457153,-0.1173264309763896,10.042747497558594,-0.09172122925519943,-0.042986150830984116,0.0025495158042758755,-0.19992297887802124,-0.06341388076543808,2.829714775085449,0.0001556334074782523,0.10320071971347583,-2.940220045708054
-1.2824193239212036,0.03946941345930229,10.572514533996582,0.055889878422021866,-0.017599787563085556,0.00458260625600815,-0.23761074244976044,-0.06405654549598694,2.8367650508880615,0.00018066546173026372,0.102840975135453,-2.939978308744052
-1.0395954847335815,0.1995056569576275,9.553547859191895,0.15270394086837769,0.004786749836057422,-0.022260071709752083,-0.26581257581710815,-0.06507151573896408,2.8421568870544434,0.003943792705267516,0.10167631424524373,-2.939868908713737
0.3129068911075592,-0.021044842898844538,9.253621101379395,0.09825548529624939,-0.09328699856996536,0.03591471910476686,-0.2945483922958374,-0.06595801562070847,2.8475489616394043,0.010625058335202851,0.10006034395130672,-2.938949699441605
-0.8520417809486389,0.16132192313671234,10.07079792022705,0.004646549001336098,-0.09179611504077911,-0.0002770219580270238,-0.3328426480293274,-0.06592746824026108,2.8552749156951904,0.012690920998645583,0.09811939648804899,-2.938432336816847
-0.4857141077518463,0.33121261000633356,9.622766494750977,-0.1679067462682724,0.07067877054214478,-0.018221229314804084,-0.361601859331131,-0.06613293290138245,2.860856771469116,0.010631468213462163,0.09675650902317622,-2.937517441075508
-1.7528027296066284,-0.0015411935746657735,9.82664966583252,-0.15394450724124908,-0.0018427127506583927,0.0016856655711308124,-0.3901679813861847,-0.06634754687547684,2.866692066192627,0.004210167873335269,0.09755536717842052,-2.9375280624119258
-1.6064047813415527,0.054378461092711675,9.652302742004395,-0.02729579247534275,-0.026074141263961792,0.013130712322890762,-0.4195173978805542,-0.06754738092422485,2.8726611137390137,0.0029777445146017406,0.09720896722762937,-2.937701571416448
-1.949627161026001,0.19400650262832764,9.967320442199707,0.0866297036409378,-0.028936650604009625,0.0370517447590828,-0.4587492048740387,-0.07001470774412155,2.881000280380249,0.004741177676554388,0.09771400550964092,-2.937463620806306
-0.7990903258323669,0.6064357161521925,10.492114067077637,0.1363658308982849,-0.04529147595167159,0.05428477749228478,-0.48827794194221497,-0.07221320271492004,2.887047052383423,0.009889577883980075,0.09823022410751758,-2.9371352734704645
-1.1207456588745117,-0.40765544772148016,9.482437133789062,-0.09650713950395584,-0.08697957545518875,-0.016208788380026807,-0.527874767780304,-0.07491462677717209,2.8953163623809814,0.010624480267713444,0.09639935304687905,-2.936780774913236
-0.714877188205719,-0.17382371425628543,9.6650390625,-0.1206929087638855,0.023824470117688176,-0.033868320286273956,-0.5581586360931396,-0.07697392255067825,2.901418924331665,0.007740127793985727,0.09380750220710031,-2.935931959735178
-0.5135184526443481,0.31045708060264704,9.644904136657715,-0.08594126254320145,0.00991774443536997,0.013682419434189795,-0.5885575413703918,-0.07924892008304596,2.9071099758148193,0.004500687712870264,0.09550493271574842,-2.9352434601167516
-1.4012845754623413,-0.21579851210117215,10.092439651489258,-0.007740983739495277,-0.08384844660758971,0.057428028434515006,-0.6185166239738464,-0.08152850717306137,2.9135963916778564,0.00337907494484364,0.09530992286981277,-2.9350606081682438
-0.11363469809293747,-0.1962287127971638,9.028782844543457,-0.04106934741139412,0.02994438260793686,0.005196186248213049,-0.6584210991859436,-0.08377997577190399,2.922492027282715,0.0039057681557311394,0.09398308132652827,-2.9343516881184715
0.3029335141181946,-0.10439568758010748,9.573190689086914,0.008441047742962837,-0.022157467901706696,0.00792010594159365,-0.6891448497772217,-0.0834643766283989,2.929124116897583,0.0032606795554668694,0.09522025699407559,-2.933741208459136
0.38517114520072937,0.11064827442169305,9.389006614685059,0.10989847034215927,-0.01291920710355043,0.03017963282763958,-0.719742476940155,-0.08341433852910995,2.936166286468506,0.004043532578975194,0.09508760280931325,-2.933622572437103
-0.8009723424911499,-0.20900307595729714,9.196456909179688,0.061355601996183395,-0.01386455446481705,-0.023508185520768166,-0.7498748302459717,-0.08340421319007874,2.943375825881958,0.007667987690525432,0.09414257014457303,-2.9337174370734793
-1.386129379272461,0.33946132659912237,10.214632034301758,-0.000879491213709116,-0.032371766865253435,0.09937106817960739,-0.7904034852981567,-0.08350538462400436,2.9534871578216553,0.009186054576032663,0.0938766276705839,-2.933028698376348
0.19513662159442902,-0.0559430867433536,9.799423217773438,-0.13833610713481903,0.0030755437910556754,-0.03268973529338837,-0.82147616147995,-0.08371613174676895,2.9608333110809326,0.007748494516444545,0.09382477499903898,-2.9323844723087658
-2.305819034576416,-0.013657135888932722,11.5414400100708,-0.11968038976192474,-0.012263348326086991,0.058882538229227066,-0.862348198890686,-0.0840725228190422,2.9710607528686523,0.0018337877844422507,0.09387391189673867,-2.9307685204866103
-0.8046899437904358,0.3842396736145031,9.316717147827148,-0.10372494906187057,-0.11143955588340759,0.05050135031342508,-0.8927979469299316,-0.08464498072862625,2.978957176208496,-0.004356804538231844,0.09169154761915635,-2.9301783397223633
-0.7251713275909424,0.15041047334671145,10.149805068969727,0.029278766363859177,-0.11162975430488586,0.0054424828849733015,-0.9235740303993225,-0.08415401726961136,2.9865219593048096,-0.005575146595060115,0.09005497432462735,-2.930132870290656
0.4815919101238251,0.5776678919792186,9.049694061279297,0.17531883716583252,0.02966735325753689,0.036149568855762475,-0.954124391078949,-0.08418241143226624,2.9941060543060303,-0.0015617008777504314,0.08839434725204377,-2.929565183632681
-1.2685842514038086,0.14935205876827365,10.100879669189453,0.12317655235528946,-0.054505228996276855,0.009451718069612987,-0.9946682453155518,-0.08467745780944824,3.0039994716644287,0.004464505666965018,0.08942851900594821,-2.928829761858526
-0.1656523197889328,0.5441044569015514,9.313450813293457,0.21032261848449707,-0.0808550864458084,0.07128439098596574,-1.024820327758789,-0.08529798686504364,3.0115034580230713,0.007253416699722078,0.08786636608502085,-2.9281413489986043
-1.1096512079238892,-0.10843765735626104,9.491158485412598,-0.05736243724822998,-0.10393332690000534,-0.011988383717834937,-1.054890751838684,-0.08600220829248428,3.0190441608428955,0.010292771299875709,0.0834856432777703,-2.927624339340457
-0.12115614116191864,0.10833951830864069,9.509536743164062,0.03954025357961655,-0.1179606169462204,0.03877315670251848,-1.0846081972122192,-0.08638681471347809,3.0270824432373047,0.010208566001472866,0.07964192077887623,-2.927018464361788
-0.7797670960426331,0.2503525018692029,10.04835319519043,-0.07011383771896362,0.041922882199287415,-0.008665533736348157,-1.1239548921585083,-0.08706902712583542,3.0376639366149902,0.010498040137542101,0.0789937145681375,-2.9324298695560485
-1.9546977281570435,0.6279000043869032,10.495217323303223,-0.028214458376169205,0.20293879508972168,0.017489844933152175,-1.1529767513275146,-0.08761589229106903,3.045470952987671,0.008755218061444801,0.08423492745789077,-2.9317787295807296
0.09479659795761108,0.04601781070232504,9.15470027923584,-0.1608857661485672,-0.023566227406263348,0.017512027174234394,-1.19171941280365,-0.08847653120756149,3.05513072013855,0.003416615710166047,0.08947542417008279,-2.9316674399296327
0.15383176505565643,0.3691558539867413,9.422971725463867,-0.05470874160528183,-0.06742022186517715,0.01884171552956105,-1.220341682434082,-0.08943148702383041,3.062342882156372,0.00047010280191434907,0.08911218323449502,-2.9318008538015587
0.3530519902706146,0.3966707289218914,9.304067611694336,0.1338348090648651,-0.030511524528264996,0.02964568138122559,-1.2489315271377563,-0.09083031862974167,3.0692641735076904,0.0024391300399703394,0.08846782214408767,-2.931002649500398
-0.3072836101055145,0.10703673213720438,9.57094955444336,0.26930007338523865,-0.07322053611278534,0.04236841574311257,-1.2773641347885132,-0.09195531904697418,3.0759952068328857,0.011254670396979267,0.08752142688318026,-2.9297955767911357
0.05806650593876839,-0.014524737372993262,9.471967697143555,0.1464948058128357,0.04121511057019234,-0.016739837825298313,-1.315970540046692,-0.09263771772384644,3.0839290618896484,0.01568634867565554,0.08749062653414079,-2.929798620351971
0.02285134606063366,0.01843692734837653,9.895036697387695,-0.20125262439250946,0.09812180697917937,-0.0686691999435425,-1.3446457386016846,-0.09316045790910721,3.089702606201172,0.016234560801342852,0.08978548940821807,-2.9305715216931723
-1.4291517734527588,0.24531000852584953,9.325899124145508,-0.14380483329296112,0.02576199173927307,-0.00824397057294846,-1.3735686540603638,-0.09379974007606506,3.095170021057129,0.0077202806528963094,0.09155746138318667,-2.931348754801883
-0.5739890933036804,0.3141644001007091,9.116515159606934,-0.06357534974813461,0.07930559664964676,-0.004962779115885506,-1.4126650094985962,-0.09530787914991379,3.102081775665283,0.0046020309080755575,0.09262219308317735,-2.9313911706164872
-0.9327901601791382,0.18642260134220234,9.075421333312988,0.01876496523618698,0.04142136126756668,-0.006903581321239477,-1.4419922828674316,-0.0967225432395935,3.10699200630188,0.00401665280255775,0.09464697125435059,-2.931024693687904
-0.8401450514793396,0.2645525932312023,9.26850700378418,0.16824734210968018,-0.12659689784049988,0.01540078222751619,-1.471298336982727,-0.09845748543739319,3.1118555068969727,0.008720380882250797,0.09373717441124711,-2.930288326498484
-0.6626683473587036,0.26603680849075434,9.73866081237793,0.03177085518836975,-0.16056475043296814,-0.020277492702007273,-1.500540018081665,-0.1002872884273529,3.1168172359466553,0.010633335764530651,0.09197062885759912,-2.9299210960979982
0.3739817142486572,0.013444472104312068,8.804777145385742,-0.11950293928384781,-0.119564950466156,-0.034224040806293474,-1.540204644203186,-0.10179570317268372,3.123990774154663,0.008610418209096941,0.08586220086026729,-2.93014034149919
-2.2975921630859375,0.06999351084232457,10.291470527648926,-0.0744146853685379,0.06864537298679352,-0.03994330763816834,-1.5695257186889648,-0.1027694046497345,3.129744529724121,0.005272855386032111,0.08273130239753573,-2.929985882506519
-1.4246214628219604,0.22916731238365282,8.951737403869629,-0.024016888812184334,0.0943366289138794,0.028914541006088246,-1.5985569953918457,-0.10408715158700943,3.1349663734436035,0.004118499512965673,0.08513171872126991,-2.929829696518801
-0.9074434041976929,0.38643032312393305,9.723063468933105,-0.04584367945790291,0.018933268263936043,0.005981083028018472,-1.6375683546066284,-0.10633283853530884,3.1407227516174316,0.00400430834143015,0.08969489181561292,-2.9305466935255198
-0.9100240468978882,0.18036459386348852,10.489648818969727,-0.01317615807056427,-0.06361156702041626,0.001996353967115291,-1.6672377586364746,-0.10841695219278336,3.1444361209869385,0.0036985794263692416,0.08944935553332749,-2.9316836782578406
-2.307554244995117,0.018604574725033168,10.73587417602539,0.07452908158302307,-0.14521829783916473,0.016034962609410303,-1.6967260837554932,-0.110725998878479,3.14856219291687,0.004403240757394303,0.08746823959303977,-2.932026192877892
-2.0743632316589355,0.4676289260387435,11.579058647155762,0.21633850038051605,-0.035502854734659195,0.015224101021885877,-1.7358884811401367,-0.11431637406349182,3.154519557952881,0.009346261384964374,0.08309861222834636,-2.9332207164389836
-1.5900332927703857,0.1404754966497433,9.558369636535645,0.11929788440465927,0.05994329601526261,0.05736786499619483,-1.7649908065795898,-0.11749127507209778,3.1585824489593506,0.01509565694146765,0.0825448505373013,-2.934979334105445
-2.275458812713623,-0.12138879299163696,10.005763053894043,-0.04201999306678772,0.07032766193151474,-0.0011018245713785377,-1.7936489582061768,-0.12072256207466125,3.1625092029571533,0.01539867360052111,0.08414518109460696,-2.9358397274112895
-0.6230663657188416,0.1662015318870556,9.522093772888184,-0.18938696384429932,0.06623965501785278,0.012196869589388362,-1.8224773406982422,-0.12418355792760849,3.166205406188965,0.01020236078827624,0.08966646210454837,-2.9381625551893253
-1.7646914720535278,-0.03624223917722576,10.32030963897705,-0.15329912304878235,0.06263485550880432,-0.00787456892430783,-1.8610731363296509,-0.12893430888652802,3.1713945865631104,0.002625474229249344,0.09204223948232551,-2.939945465946195
-1.699526071548462,0.21114447712898374,9.78197956085205,0.07062030583620071,-0.0545775033533573,0.09251955896615982,-1.8902642726898193,-0.13189727067947388,3.1750662326812744,0.0013607419587682863,0.09242665251354751,-2.9402879291230644
-0.01616799086332321,0.393921732902528,9.424232482910156,0.2328859567642212,-0.05162326246500016,-0.0351913496851921,-1.919752836227417,-0.1353358030319214,3.1788418292999268,0.007218853909554121,0.09049133157824822,-2.9412686418386467
-0.8739243745803833,-0.8185913562774645,10.699258804321289,0.20470412075519562,-0.027835674583911896,-0.004608693532645699,-1.959107518196106,-0.1398807168006897,3.184175968170166,0.015296586237501677,0.08954914531690324,-2.942684597077954
-0.05285884812474251,0.3169300258159649,9.616415977478027,0.008877284824848175,-0.03402772173285484,-0.00600454024970531,-1.9885460138320923,-0.14315122365951538,3.1886537075042725,0.017760327759994803,0.08929030381726354,-2.94366322254853
-0.7764908671379089,-0.218825116753577,9.67693042755127,-0.15054138004779816,-0.03881458193063736,0.013365929946303373,-2.018324613571167,-0.1463548094034195,3.1932127475738525,0.013058535541746364,0.08820227219804265,-2.944491494460771
-2.344858407974243,0.0410350188612951,10.638165473937988,-0.16619817912578583,-0.02538499981164932,0.018495904281735424,-2.0567626953125,-0.14932577311992645,3.1990020275115967,0.00465665103271709,0.08799617565515358,-2.944312027120018
-0.9105411767959595,0.18877804279327517,10.308691024780273,-0.05255778878927231,0.04180865734815597,-0.044165574014186866,-2.0856966972351074,-0.15186519920825958,3.203437566757202,0.0035966676710253204,0.0885578598665248,-2.9442747174780535
-1.0550618171691895,0.29567179083824285,10.519625663757324,0.15488089621067047,-0.03165465593338013,-0.011867154389619824,-2.114781141281128,-0.15455682575702667,3.208127498626709,0.0061023283965284565,0.08937565705342555,-2.945008893821043
-2.133389949798584,-0.026929024606941906,10.007225036621094,0.09705916792154312,0.06665151566267014,-0.03087903559207917,-2.1440765857696533,-0.1572379171848297,3.2134618759155273,0.011211892357618712,0.09015582810383509,-2.9458192379102814
-1.7989100217819214,0.1207952424883856,11.09201717376709,0.001797426026314497,-0.05389449000358581,0.053444594144821174,-2.1833229064941406,-0.16078056395053864,3.2211780548095703,0.012496310881853176,0.09083717378929602,-2.945964557089877
-0.6343995332717896,-0.2708414793014514,9.916319847106934,-0.11574023216962814,-0.010260324925184243,0.0588565431535244,-2.2129364013671875,-0.1632806360721588,3.2273945808410645,0.009195107577560794,0.08956265598905012,-2.946071692199931
0.7095023989677429,0.44265317916870217,8.230748176574707,-0.20256073772907257,0.0008057923987507793,-0.021877700462937355,-2.2426624298095703,-0.16564194858074188,3.2337841987609863,0.0027468741693068123,0.08857270139904007,-2.945658874848612
0.3115736246109009,-0.010925872251390233,9.615790367126465,-0.06732814013957977,-0.017164014279842373,0.019189549610018734,-2.2828667163848877,-0.168599933385849,3.2423460483551025,0.00013815308195247382,0.08827977155558106,-2.945884198200012
-0.09095367789268494,0.2756087779998791,9.305693626403809,0.016196418553590775,-0.06498725712299348,-0.06329917162656783,-2.3129453659057617,-0.17104974389076233,3.249075174331665,-0.0009832953412310327,0.08506049929024642,-2.946717124261751
0.4947463572025299,-0.23782053589820748,9.293444633483887,0.09808952361345291,-0.01862056367099285,-0.009872087277472017,-2.3428468704223633,-0.17359700798988342,3.2558481693267822,0.004174994084233834,0.08323713207331782,-2.9468315733383355
0.43720459938049316,0.32146963477134816,9.239208221435547,0.04446379467844963,-0.12052014470100403,0.013202188536524788,-2.3832011222839355,-0.1775069534778595,3.2642202377319336,0.0054542466410361515,0.08143509415476824,-2.9468626377689806
-1.3344675302505493,-0.46272125840186956,9.53046703338623,0.06819386035203934,-0.20594872534275055,0.012120283208787467,-2.4136979579925537,-0.1805306077003479,3.2705960273742676,0.007791219732266239,0.07343655027688742,-2.9471155585442164
-1.1489938497543335,0.05549225583672647,10.105055809020996,-0.07240474224090576,-0.20185980200767517,-0.0028271258343010894,-2.4438579082489014,-0.18348276615142822,3.2774691581726074,0.008214701325098842,0.06530903998528419,-2.9479391161271598
0.25717246532440186,0.24627448618412123,8.514505386352539,0.07068890333175659,0.12491312623023988,0.06146103888750075,-2.473898410797119,-0.18654820322990417,3.28439998626709,0.00821809572504823,0.06371432348268366,-2.9480471168271998
-1.3523871898651123,0.4637523889541638,10.115099906921387,0.0189482644200325,0.24049633741378784,0.022217402234673472,-2.5150015354156494,-0.1888555884361267,3.2931559085845947,0.008184625831915175,0.06846397100186644,-2.949141967661502
-0.40067416429519653,0.13816747069358928,8.432527542114258,-0.10884655267000198,0.1643831580877304,0.005416438914835433,-2.546110153198242,-0.19014307856559753,3.2993907928466797,0.005859924805777429,0.07820137560394214,-2.95095474457959
-1.5341930389404297,0.25018680095672746,11.115166664123535,-0.1506301611661911,0.06030214205384254,-0.049174379557371146,-2.5872416496276855,-0.19200502336025238,3.308424472808838,0.003121987344119341,0.08066163019933735,-2.9517644115108657
-0.13824112713336945,0.46321886777877913,8.834936141967773,-0.10688171535730362,0.0678316280245781,0.02304334938526153,-2.6182808876037598,-0.19403517246246338,3.3150320053100586,-0.0015834244334441607,0.08273510518974547,-2.952556562852545
-2.1092517375946045,-0.06532488763332234,10.849899291992188,0.09576241672039032,0.015336113050580025,0.005352952517569063,-2.6488656997680664,-0.19650669395923615,3.322051763534546,-0.0012581291160357125,0.08468863598072365,-2.9529960850511596
-0.8780804872512817,-0.04821643605828164,9.91045093536377,0.11041054129600525,0.023048488423228257,-0.049439672380685806,-2.6793885231018066,-0.19924554228782654,3.32957124710083,0.0018742696401275998,0.08457709357021118,-2.95319665070901
-1.1338931322097778,0.02252967469394327,9.814359664916992,0.06913404911756516,0.03364668786525726,-0.005319647956639533,-2.7202155590057373,-0.20311442017555237,3.3397200107574463,0.008925350564090594,0.08445007310306837,-2.954067260298326
-1.3706878423690796,-0.3486430644989001,10.650553703308105,0.030624113976955414,-0.0796154886484146,0.07404024899005891,-2.7508349418640137,-0.20578360557556152,3.3474810123443604,0.011181205773600636,0.08620900924315292,-2.9545647961609656
-1.8636772632598877,-0.27309879660606257,10.537297248840332,-0.05423092842102051,0.0020561697892844686,0.008736513555049896,-2.7814197540283203,-0.2083626091480255,3.3554506301879883,0.009924098332967785,0.08511483869832358,-2.954170845282296
-0.8417209982872009,0.49603742361068853,10.264062881469727,-0.2352563440799713,0.015897611156105995,-0.0004615063080564161,-2.8119800090789795,-0.21112562716007233,3.3633620738983154,0.004175551905760035,0.08446178512241602,-2.953247234214967
-0.29609525203704834,0.15750387310981873,9.954154968261719,-0.17871345579624176,-0.012188383378088473,0.015369009226560594,-2.8529932498931885,-0.21507753431797028,3.373668670654297,-0.0032545268022521412,0.08478145550315931,-2.95353127049261
-1.7022923231124878,0.2919176518917096,10.131020545959473,0.08847922831773758,-0.14271751046180725,-0.024538617581129057,-2.8837697505950928,-0.21792201697826385,3.3817996978759766,-0.004090799271963019,0.08327234992886853,-2.9539189091249756
-0.8278310298919678,0.2576933205127728,10.158677101135254,0.29542866349220276,-0.08692676573991776,0.05181391164660455,-2.9145925045013428,-0.22091740369796753,3.389960527420044,0.0026051285356138635,0.07898455085029188,-2.9542347674681726
0.282773494720459,0.41823858022689936,9.592303276062012,0.12027627229690552,-0.07503651082515717,0.036158420145511634,-2.9556360244750977,-0.22517232596874237,3.4006028175354004,0.01057278477247149,0.0767112565828829,-2.953410561914394
-0.3158133029937744,-0.0023702327162016413,8.938981056213379,0.1991117149591446,-0.06838792562484741,0.021106850355863578,-2.986382484436035,-0.2282998263835907,3.4083590507507324,0.014846260582116728,0.07507663993743718,-2.9527881674840124
-1.6776500940322876,-0.3548158109188068,9.49950885772705,-0.16691534221172333,-0.0038685880135744823,-0.010879958979785442,-3.0167486667633057,-0.23107965290546417,3.416306972503662,0.013053673087144486,0.07278826917200323,-2.952326274172126
0.10499125719070435,0.5499669909477245,9.362364768981934,-0.2450939565896988,-0.053033310920000076,-0.014812084846198552,-3.056065797805786,-0.23351147770881653,3.426583766937256,0.0019208275468364977,0.07199402991252653,-2.9529999039204275
-0.9444108009338379,-0.05647725239395974,9.905132293701172,-0.21592473983764648,-0.0035386707168072553,-0.07497064769268036,-3.0852789878845215,-0.23534052073955536,3.4339077472686768,-0.0012222336655190514,0.07181789663738876,-2.953171855625123
-1.0459413528442383,0.39098808169365035,8.765678405761719,0.10702893137931824,0.12108629941940308,-0.03618017956614496,-3.1141557693481445,-0.2374829202890396,3.4410552978515625,-0.0009016899755908202,0.07489149473078044,-2.9534756240766358
-0.6040482521057129,0.026035126298667256,10.265969276428223,0.24099546670913696,0.04955729469656945,0.060605119913816445,-3.143005847930908,-0.2391069084405899,3.447392225265503,0.005329497130078068,0.07830913198652724,-2.9528716706306497
-1.054441213607788,0.4588070511817945,10.273416519165039,0.08737850189208984,0.01963066309690475,-0.0382474921643734,-3.1812210083007812,-0.24147063493728638,3.4560654163360596,0.008435484493308762,0.0786490975853533,-2.9527339690945404
-0.8395261764526367,0.21070206165313843,10.061999320983887,-0.07874896377325058,-0.062423139810562134,-0.000732153654098503,-3.2100367546081543,-0.24335643649101257,3.4626758098602295,0.00988498244110121,0.0775635066300971,-2.9528806545560093
-2.4130783081054688,0.017090966925026273,10.507864952087402,-0.08079779148101807,-0.017683014273643494,0.007982731796801092,-3.2387747764587402,-0.24525047838687897,3.4693217277526855,0.006354580722094871,0.07605594784238123,-2.9531936535608314
-0.5943332314491272,0.23672033846378443,9.562422752380371,-0.03437937796115875,0.06858862936496735,0.003714736783877007,-3.276660680770874,-0.24793438613414764,3.4779813289642334,0.005611619328369755,0.07610041238054151,-2.9533251245501715
-1.9115102291107178,-0.041161980479954535,9.31893539428711,0.030773960053920746,0.15740610659122467,-0.029251275584101698,-3.304797649383545,-0.25016430020332336,3.484081268310547,0.005727604953695819,0.08188889165932181,-2.953912373445583
-0.5003978610038757,0.012218331918121514,9.222326278686523,-0.042605891823768616,0.008076973259449002,-0.023653818294405937,-3.3333332538604736,-0.2527197003364563,3.48968505859375,0.006714068684770218,0.08669901148120271,-2.954723185469806
-0.35838818550109863,0.4057026803493511,9.163137435913086,0.0012565429788082838,-0.009013753384351736,-0.047667089849710464,-3.3720884323120117,-0.2569887638092041,3.496959924697876,0.007240347741147201,0.08682571503206789,-2.955191355690257
-1.6587246656417847,0.3387525379657758,10.25986099243164,0.07310672849416733,-0.07370872050523758,-0.0012221178039908318,-3.4012856483459473,-0.2605600655078888,3.5027308464050293,0.008604438905509434,0.08433743916144273,-2.955803910772988
0.3361707329750061,-0.22956189513206368,9.30219841003418,0.09603792428970337,0.042792774736881256,-0.01872286573052407,-3.4305970668792725,-0.2642657160758972,3.508636236190796,0.011435459470139069,0.08364674840518826,-2.956166735043937
0.17608629167079926,0.2740072011947643,9.134410858154297,0.032902028411626816,0.036973126232624054,0.014037928543984885,-3.459719181060791,-0.26801151037216187,3.5146751403808594,0.012705251233514871,0.08483862986937601,-2.9566152112523856
-1.331328272819519,0.1128923594951641,9.273399353027344,-0.037672799080610275,0.10313763469457626,0.0026018428616225594,-3.4970877170562744,-0.2720796465873718,3.5223634243011475,0.013080055458301335,0.08907712123678647,-2.9573297437529207
-0.30373212695121765,0.2737064361572278,9.903401374816895,-0.07712630927562714,0.004795670509338382,0.02894846349954605,-3.525238275527954,-0.2751615643501282,3.527846336364746,0.00991351117348267,0.09177898397126528,-2.9576849383883714
-1.6527366638183594,-0.23393496870994432,11.02894115447998,-0.0384218655526638,-0.016001226380467415,-0.0008239777525886874,-3.5627799034118652,-0.2793818414211273,3.535867214202881,0.008070164009780586,0.09158554222951185,-2.9576138181353473
-1.6798738241195679,0.0030431635677827507,10.63322925567627,-0.030441701412200928,0.007731861434876919,-0.00241434550844133,-3.5908284187316895,-0.2823981046676636,3.5423851013183594,0.006559864625169481,0.09014249449150587,-2.9573162522774314
-0.820052444934845,-0.05046792328357582,9.344244003295898,0.11260399222373962,-0.02437082678079605,0.009729408659040931,-3.618950605392456,-0.28494060039520264,3.5487709045410156,0.006869661517772844,0.08807165915846693,-2.9571328991217785
-2.3572399616241455,0.06118632107973243,11.790221214294434,0.1094096377491951,-0.024377603083848953,0.0014533487847074897,-3.6468560695648193,-0.2875603139400482,3.555539131164551,0.008482569964570912,0.08743437958119005,-2.957155614424833
-0.627204179763794,0.8194972872734081,9.515375137329102,-0.0023331185802817345,0.06465911865234375,0.031703304499387734,-3.6841442584991455,-0.2914177477359772,3.5643539428710938,0.011351477562622047,0.08898370334103335,-2.9575764059586582
-0.1983863115310669,0.29811671376228455,9.990358352661133,0.033336371183395386,-0.042868331074714654,0.043024264276027686,-3.7126715183258057,-0.2943180501461029,3.570525646209717,0.011671330728069062,0.09125376507096553,-2.957622462916497
-2.2746849060058594,0.06724324822425974,10.810809135437012,-0.0625683143734932,0.00011660857126116034,-0.058653973042964935,-3.7411282062530518,-0.29671746492385864,3.576939821243286,0.011866474113462993,0.09095680671847901,-2.9576649269679742
0.007596113253384829,0.6627864241600049,9.86772632598877,-0.04479639232158661,0.033392783254384995,0.005639524664729829,-3.7698001861572266,-0.29943615198135376,3.583608865737915,0.011432633775903383,0.09057980728999535,-2.957771081857311
-0.03715389221906662,-0.0717419981956471,8.96645736694336,-0.08316239714622498,-0.004009674768894911,0.003021148266270757,-3.808626413345337,-0.3033565580844879,3.592723846435547,0.008758080759407254,0.09121760910155127,-2.9576078890574067
0.05096156895160675,0.1972910165786755,9.805160522460938,0.030368519946932793,0.014912887476384641,0.016328718513250347,-3.83735728263855,-0.3056383430957794,3.6001861095428467,0.008683686560448685,0.0909055191429059,-2.9575590376671412
-0.34566476941108704,0.5000000596046459,9.313823699951172,-0.004570189863443375,-0.013989293016493319,0.008230376057326795,-3.8662989139556885,-0.3078874349594116,3.6076760292053223,0.009081673559780951,0.09095674501675606,-2.957609238113057
-1.5131514072418213,0.1060078740119947,10.546257019042969,0.08284348249435425,-0.0768645703792572,0.029080186039209376,-3.905381679534912,-0.31130990386009216,3.6180148124694824,0.009622396026663252,0.08782109121251878,-2.9577654678705287
-0.4647815525531769,-0.058947145938872174,9.119901657104492,0.06456653028726578,-0.01901217922568322,-0.0431661531329155,-3.9348509311676025,-0.314138263463974,3.6258490085601807,0.010716856112938713,0.08655080923170012,-2.9579031430424068
-0.6874383687973022,0.42617607116699346,10.249622344970703,0.07365794479846954,-0.06611312180757523,0.003075810614973315,-3.9642181396484375,-0.3169310688972473,3.633927345275879,0.01239927433888927,0.08525445776089911,-2.95783292801471
-1.5857616662979126,0.4858275651931776,11.019161224365234,-0.03331409767270088,-0.1295676976442337,0.018913228064775484,-4.00339412689209,-0.32037556171417236,3.6437854766845703,0.012625507457333677,0.08051627414997906,-2.9574908098301993
-1.9326295852661133,0.1766947507858289,10.466348648071289,0.008611374534666538,-0.1864757537841797,0.05836578831076624,-4.033082008361816,-0.3230341970920563,3.651024580001831,0.012191567753456653,0.07864989857315674,-2.9574149104929277
-1.0200603008270264,0.049951203167439714,9.860544204711914,-0.027674002572894096,-0.11760110408067703,0.002364510437473669,-4.062723636627197,-0.32576698064804077,3.658571243286133,0.009660612731902147,0.07328035462454086,-2.9578775743283168
-1.2265372276306152,0.08757664263248556,9.15472412109375,-0.004651147406548262,0.07394127547740936,-0.0169124584645033,-4.101891994476318,-0.3304842412471771,3.668229818344116,0.008821228715013514,0.07143450314182645,-2.957934738700122
-1.4349333047866821,0.24271966516971705,9.545716285705566,0.06883849948644638,0.06292983889579773,0.030447527766227715,-4.130947113037109,-0.3341655135154724,3.675509214401245,0.009661884668597276,0.07347412295767447,-2.957677178022186
-0.6521954536437988,0.471599340438844,10.116518020629883,0.141682431101799,0.0348070114850998,0.03230029717087745,-4.160163879394531,-0.3379734754562378,3.6826000213623047,0.012507348134607256,0.07640490153061344,-2.9571055733638762
-0.08363835513591766,0.30688643455505493,9.977372169494629,0.08834327757358551,-0.08844484388828278,0.00786492694169284,-4.189553260803223,-0.3419908285140991,3.6896471977233887,0.016231828913969373,0.07453273264583243,-2.95668548841429
-1.9752540588378906,-0.04499433189630375,10.892655372619629,-0.03557049110531807,-0.0933104157447815,-0.006102231331169594,-4.228244781494141,-0.34610602259635925,3.697718858718872,0.01689479684076406,0.07236238827719114,-2.9567727791998264
-0.00645240256562829,0.381640672683717,9.306546211242676,-0.12979558110237122,-0.1024041399359703,0.030560376122593894,-4.256999969482422,-0.34913384914398193,3.704329490661621,0.013491598965384584,0.06903715826433372,-2.9572311973800938
-0.4585633873939514,0.3450074195861828,9.528122901916504,-0.043311696499586105,0.1943468451499939,-0.05580861493945124,-4.285511493682861,-0.35222458839416504,3.710993528366089,0.010281359382874363,0.07094916077818701,-2.957373114046403
-0.4573742747306824,0.36724269390106307,8.544782638549805,0.049261920154094696,0.2016562819480896,-0.009857062250375772,-4.322291851043701,-0.3560759723186493,3.719276189804077,0.010734363343496998,0.07495662777209294,-2.9574439626309235
-0.3973005414009094,0.41155880689621094,9.998507499694824,0.10642600804567337,0.13448986411094666,-0.031232155859470385,-4.34981632232666,-0.358966201543808,3.7254843711853027,0.013912826982336247,0.08335122609884346,-2.9571069792961633
-1.1427918672561646,0.6629931926727308,10.81041145324707,0.08116207271814346,0.05604789033532142,-0.05466496199369431,-4.377807140350342,-0.362047016620636,3.7316858768463135,0.01829808015203317,0.08599762796943196,-2.957338730090262
-1.972787857055664,0.035189993679524745,10.452287673950195,0.009001183323562145,-0.06661324203014374,-0.03063086792826652,-4.405660152435303,-0.36494362354278564,3.738643169403076,0.01968654856578774,0.08524071639798723,-2.9576281001273204
0.24269643425941467,0.09925099462270842,8.655577659606934,-0.08365621417760849,-0.048698466271162026,0.033906172960996635,-4.443519592285156,-0.3690050542354584,3.747628688812256,0.016829069499123855,0.08288828919424039,-2.95790609566622
-1.4858183860778809,0.2788763642311108,9.673721313476562,-0.22874893248081207,0.08567824959754944,-0.0057533928193152055,-4.472227573394775,-0.3720911741256714,3.754487991333008,0.010399606256509883,0.08393356331035251,-2.9574089386234577
-0.11647186428308487,-0.016550889238714003,9.543364524841309,-0.06182914227247238,0.1329527646303177,0.04086983576416968,-4.510324478149414,-0.3763497471809387,3.7645766735076904,0.0068506619029039964,0.08642474334639272,-2.956776564943847
-1.0281529426574707,0.08275593817234153,9.293296813964844,-0.04580897465348244,0.07255814969539641,-0.09495946764945985,-4.5391459465026855,-0.3795558512210846,3.7722740173339844,0.004527233687220822,0.08901665982834343,-2.956828448259744
-0.7710334658622742,0.9970344305038464,10.293326377868652,0.1174263209104538,0.06019087135791778,-0.03797027096152306,-4.568144798278809,-0.38255438208580017,3.7798142433166504,0.00727711896015109,0.09138901713398985,-2.958034591335199
-1.0232577323913574,0.5858417153358471,9.114508628845215,0.15175014734268188,0.005489544477313753,-0.031904567033052444,-4.597280979156494,-0.3857046663761139,3.7874040603637695,0.010390594245607506,0.0914123143751666,-2.9579280753556145
-0.6834772229194641,0.12363350391388066,10.36734676361084,0.11934667080640793,-0.12297528237104416,-0.034536406397819505,-4.636268138885498,-0.38996022939682007,3.797649383544922,0.018816423464662432,0.08745033677640766,-2.9576314671171073
-1.8134372234344482,-0.3042987585067737,9.859314918518066,-0.11584454029798508,-0.1173764020204544,-0.033991422504186616,-4.6648993492126465,-0.3942194879055023,3.805786609649658,0.01982488548323052,0.08038655941958688,-2.9582830183884212
-0.8112099766731262,-0.09770683199167143,8.7894287109375,-0.24901041388511658,-0.13212950527668,-0.018603140488266928,-4.693690776824951,-0.3991039991378784,3.813676595687866,0.016234132996678967,0.07829994230341442,-2.958915070790648
-0.7169130444526672,-0.19134801626205333,8.99116325378418,-0.12892822921276093,-0.044446498155593865,0.03243610262870789,-4.722364902496338,-0.4039963483810425,3.821460723876953,0.00736223556311823,0.0751175186363803,-2.959627891471541
-0.9818644523620605,-0.07262796163558843,9.514694213867188,0.04648629203438759,0.09567677229642868,0.035988662391901,-4.760486125946045,-0.4106081426143646,3.831228017807007,0.005906156218543473,0.07720001198696153,-2.9595230270529993
-0.26752761006355286,0.2787471413612377,8.925976753234863,0.04539963975548744,0.12197927385568619,0.0013436285080388039,-4.788466930389404,-0.414811909198761,3.8379387855529785,0.007247901027467614,0.07998784164853825,-2.9592217359193533
-0.022040046751499176,-0.02707570418715364,9.246386528015137,0.2120954543352127,0.12367147952318192,0.00042624853085724987,-4.825807571411133,-0.4200672209262848,3.846536636352539,0.013564447292134291,0.08511172336099189,-2.9597497564959196
-0.2613697648048401,0.23288628458976862,9.591869354248047,0.19873519241809845,0.1286025047302246,-0.005560516379773632,-4.854019641876221,-0.424089640378952,3.852993965148926,0.020948168014110525,0.0906013737500042,-2.9611895955963843
-0.4357726275920868,-0.09414836019277455,9.687345504760742,0.13768361508846283,0.08970194309949875,0.0019255492370575556,-4.882657527923584,-0.4279569983482361,3.8593335151672363,0.02355225616441908,0.09255108071350344,-2.9616443169014897
-0.5892096757888794,-0.23899391293525582,9.266958236694336,-0.08338528126478195,-0.03981509804725646,0.06675634533166885,-4.911202430725098,-0.4315398633480072,3.866208791732788,0.02283465779177281,0.09277382371792862,-2.9614947066155883
-0.42719951272010803,-0.5926669836044299,10.066408157348633,-0.11219677329063416,-0.06187145039439201,0.05343980714678765,-4.9500226974487305,-0.4353892505168915,3.8753700256347656,0.015261925502679527,0.09280871288052102,-2.9617304345655158
-0.667366087436676,-0.4692322611808766,8.935277938842773,-0.19652441143989563,-0.09017021209001541,-0.049706310033798204,-4.979719638824463,-0.43836578726768494,3.8817830085754395,0.010250226683240061,0.09218306690040218,-2.962238988454236
-0.7454782128334045,-0.022164715453981222,9.244065284729004,0.06841403990983963,-0.19213610887527466,0.015163816511631036,-5.009399890899658,-0.44133079051971436,3.8885276317596436,0.00621065788887123,0.08611537864480628,-2.9632773876732696
-1.742999792098999,0.22157603502273682,10.05296802520752,0.0912918820977211,-0.14619486033916473,0.026450075209140795,-5.0393385887146,-0.4446752369403839,3.8946003913879395,0.009399309653555893,0.07827254739833304,-2.9630550689199286
0.23426121473312378,-0.09987859427928819,8.667572975158691,0.2087257206439972,-0.10836748033761978,0.046415343880653395,-5.078978538513184,-0.4490443170070648,3.9026119709014893,0.012501850860045315,0.07513893612436542,-2.9624717590993277
-1.2091405391693115,0.036512494087220446,9.838555335998535,-0.10334622859954834,-0.7096574902534485,-0.004266392439603719,-5.10906982421875,-0.452102929353714,3.9083127975463867,0.015940074220544515,0.06232609083962533,-2.961857416857564
0.390735000371933,0.2653611600399028,8.698274612426758,-0.2067989706993103,-1.225427508354187,0.015316106379032286,-5.1499128341674805,-0.4554571509361267,3.9147307872772217,0.009735823979815502,0.018412187271108042,-2.962447680549604
-1.64946448802948,-0.34216248989105114,8.919590950012207,-0.3359476327896118,-1.3278886079788208,-0.05827401950955375,-5.1804046630859375,-0.4575153887271881,3.9183530807495117,0.00423734432158882,-0.0080347171664558,-2.9631563586506777
-1.1507803201675415,0.9160352945327769,8.025406837463379,-1.2204735279083252,-0.3709060549736022,1.0805468559265137,-5.209580898284912,-0.4594554305076599,3.9201908111572266,-0.017318172233175003,-0.049633600122550074,-2.939338475056983
-0.9662595987319946,-0.7954872250556938,6.65715217590332,-1.375864863395691,0.5021374225616456,1.1354780197143555,-5.2374467849731445,-0.4610963761806488,3.9193201065063477,-0.07456288477149904,-0.04597479867015356,-2.894363839177574
-1.6020468473434448,-0.3451386690139761,7.79274845123291,-1.1946876049041748,0.726076900959015,1.13953697681427,-5.271592617034912,-0.46522530913352966,3.9156415462493896,-0.10163190865212178,-0.03125445842061338,-2.8724549089187335
0.41032564640045166,1.7276253700256357,7.309649467468262,-0.3899172246456146,0.5894023180007936,1.1777243614196777,-5.295891284942627,-0.46994808316230774,3.910581588745117,-0.13362955793769665,0.003557108904318905,-2.8289087556299783
-1.1518088579177856,0.9822006225585947,8.472841262817383,0.17475388944149017,0.40632492303848283,1.1754817962646484,-5.319568634033203,-0.47588878870010376,3.9035098552703857,-0.137970841048153,0.030515548553072067,-2.7846890023771236
-0.9939361810684204,0.7693595886230479,8.068970680236816,0.30218130350112915,0.15286760032176985,1.2189342975616455,-5.350161552429199,-0.48563915491104126,3.8915531635284424,-0.1339303883957368,0.03846126793543041,-2.761474360783484
-0.7163734436035156,-0.34545093774795427,8.531810760498047,0.15784500539302826,-0.1887130886316298,1.2019314765930176,-5.372135162353516,-0.4949365258216858,3.8821372985839844,-0.1271128250004891,0.044666039578217756,-2.719368598312825
-0.5701221823692322,0.0325237549841414,8.228937149047852,0.09175384044647217,-0.17277427017688737,1.1909899711608887,-5.393249988555908,-0.5050613284111023,3.8714046478271484,-0.12065610401494781,0.04474050594902454,-2.663579569773164
-0.6606483459472656,-0.08879576623439683,8.614748001098633,-0.12293776869773865,-0.16730976104736314,1.1871819496154785,-5.420325756072998,-0.5197888612747192,3.854865789413452,-0.11964374859748225,0.04432459074578341,-2.644993267031317
-0.24970613420009613,-0.08059044927358523,8.485851287841797,0.07124544680118561,-0.27313470840454085,1.2501106262207031,-5.439838886260986,-0.531889021396637,3.8413636684417725,-0.11591816277875865,0.04136217508263855,-2.5889928041097843
-0.5524016618728638,0.5135503411293041,9.059276580810547,0.2251490205526352,-0.22168956696987135,1.291314721107483,-5.458540916442871,-0.5451293587684631,3.827528715133667,-0.10999239219850905,0.03875019951489817,-2.544561857750271
-1.1604011058807373,0.4442989528179181,9.807188987731934,0.2511376440525055,-0.09443804621696457,1.2532330751419067,-5.476291179656982,-0.5589582920074463,3.813084363937378,-0.10385805413262197,0.038552391450344614,-2.5128865746897056
-1.5327235460281372,0.5330455303192151,9.731410026550293,0.06786137819290161,0.0548128299415113,1.2129493951797485,-5.4984002113342285,-0.5781721472740173,3.793024778366089,-0.09578103290182953,0.04238023919506186,-2.468612309918661
-0.48755595088005066,0.7632004022598278,9.025520324707031,0.12034614384174347,0.21730014681816118,1.3106858730316162,-5.514027118682861,-0.5933401584625244,3.777637004852295,-0.08773518094760062,0.05309459166354953,-2.41833924977578
-0.6626081466674805,0.289250284433366,9.208548545837402,0.05632838234305382,0.24766612052917497,1.279606580734253,-5.529041290283203,-0.6090136766433716,3.762035846710205,-0.08448069520404405,0.06025875004569096,-2.3929455572257132
-1.252448320388794,-0.3111988604068744,10.17586898803711,0.09574481844902039,0.07391577959060684,1.2181050777435303,-5.547990798950195,-0.6309356093406677,3.740831136703491,-0.07792006427951155,0.07183845869428801,-2.343055874195191
-1.0483613014221191,0.31482467055320856,9.666363716125488,0.18065717816352844,0.033880263566970985,1.2954174280166626,-5.561131477355957,-0.6479989886283875,3.7249135971069336,-0.06731804784710432,0.07702388661983475,-2.29326791141678
-0.5327422022819519,0.31895038485527155,9.5780029296875,0.2794385254383087,0.05368895083665863,1.2486059665679932,-5.573166370391846,-0.6658694744110107,3.708730936050415,-0.06100183377965866,0.07932268178944567,-2.2680355706719117
-0.7616382837295532,0.6348279714584363,9.956968307495117,0.20737528800964355,-0.020783836022019237,1.2276527881622314,-5.588161468505859,-0.690794825553894,3.686638832092285,-0.04708086168086575,0.08264493692783438,-2.2184251197562808
-0.6439375281333923,0.399553179740907,10.1981840133667,0.0674193799495697,-0.168746381998062,1.2297511100769043,-5.598836898803711,-0.7098067402839661,3.6699938774108887,-0.03692991300318747,0.07910872707950233,-2.168842231222365
-0.017429204657673836,0.18154637515544994,8.367486000061035,0.007004164159297943,-0.047270081937312934,1.2028502225875854,-5.609116077423096,-0.7291731238365173,3.6529228687286377,-0.033781246854643544,0.07793794305281425,-2.144520000257206
-0.6862977147102356,0.5359345078468335,9.610989570617676,-0.11162451654672623,-0.08050000667572009,1.0131789445877075,-5.618866443634033,-0.7486453056335449,3.635524034500122,-0.032806757627938755,0.07817614340292024,-2.1011196591996595
-0.5487220883369446,1.128788471221925,9.469475746154785,0.008157224394381046,-0.013510620221495503,1.0167620182037354,-5.630387306213379,-0.7766094207763672,3.611377716064453,-0.0319017385147497,0.07812414361330888,-2.0606600663433277
-1.0571120977401733,0.5849362015724193,9.112899780273438,0.11935556679964066,0.036993041634559756,1.0169883966445923,-5.638274669647217,-0.7978562116622925,3.5931594371795654,-0.029102014380458723,0.07925576430876163,-2.0401047011977878
1.886361002922058,0.20075681805610765,8.72616958618164,0.1717967391014099,0.06822556257247936,0.8514469861984253,-5.645242691040039,-0.8198882937431335,3.5743496417999268,-0.020012658792840348,0.08380973663277752,-2.0048149212251962
-0.09902189671993256,0.7306237220764172,10.364480018615723,0.35790106654167175,0.003545749001205071,0.8465718626976013,-5.650701999664307,-0.842801034450531,3.555147886276245,-0.009229075665172337,0.08565835245747162,-1.975976585931506
-0.3093901574611664,0.18378132581710935,9.829158782958984,0.2819361388683319,0.06873703747987757,0.8374764919281006,-5.657749176025391,-0.87374347448349,3.529899835586548,-0.0028477081277801875,0.08661532074427984,-1.9600104298102097
-0.5554070472717285,0.5602655410766615,10.672281265258789,0.15545929968357086,0.019341910257935607,0.6659976840019226,-5.662991523742676,-0.8969952464103699,3.5114266872406006,0.007112760716854934,0.08791872482911696,-1.9322523628536723
-0.8717434406280518,-0.011964121833442526,9.1151704788208,0.10366413742303848,0.002099397592246607,0.6103032827377319,-5.669797897338867,-0.9278547167778015,3.487170696258545,0.012557983618918755,0.08650601631375002,-1.9073000073574693
-0.25182658433914185,0.7297639250755322,9.774815559387207,0.11007442325353622,0.07876680046319968,0.5912075638771057,-5.674825191497803,-0.9510955810546875,3.468811511993408,0.01481371317269308,0.0867013971711821,-1.895010323605241
-0.8704536557197571,1.0354008674621595,10.855721473693848,0.14979678392410278,-0.09647161513566965,0.4901646077632904,-5.679775714874268,-0.9745559692382812,3.4505062103271484,0.02156049845221309,0.08705776898489306,-1.8746819978436402
0.4232524037361145,0.19338023662567247,8.84257984161377,0.04004865512251854,-0.2014313489198684,0.4784848690032959,-5.684757709503174,-0.9986101984977722,3.431986093521118,0.02906273439093516,0.08088011576914884,-1.8552468027112001
0.4647024869918823,0.6350675225257886,10.102514266967773,0.018844006583094597,-0.20658759772777552,0.4308852553367615,-5.691195011138916,-1.0317796468734741,3.408085823059082,0.03033822015106501,0.07677940972230304,-1.8463614878287795
-1.9279133081436157,-0.06826916337013117,10.40300178527832,-0.16031886637210846,-0.190812885761261,0.07387956976890567,-5.69609260559082,-1.0568137168884277,3.3903942108154297,0.02801368753595018,0.06985189210992616,-1.8401447720329611
-0.9151021838188171,-0.3445261418819416,9.31460952758789,-0.08605452626943588,-0.08703327924013136,0.0884411931037903,-5.700936317443848,-1.0818771123886108,3.3726236820220947,0.022862566236342165,0.06500708194266212,-1.8384943742884452
0.0686231181025505,-0.2614705860614765,9.512378692626953,-0.005075594410300255,0.020155463367700584,0.0466902069747448,-5.7066569328308105,-1.1152749061584473,3.3486900329589844,0.021377980198622058,0.06523545501907664,-1.8374173965949672
-1.5110849142074585,0.022313145920635657,11.336943626403809,0.2673097252845764,0.10693161189556123,0.09993039816617964,-5.709702491760254,-1.1409118175506592,3.330142021179199,0.025869121131848402,0.0692289235296296,-1.835818231090002
-1.241662859916687,-0.3259253501892079,8.896661758422852,0.2814621925354004,0.17340965569019318,0.009735221974551657,-5.71275520324707,-1.1667091846466064,3.3115084171295166,0.03528508419778009,0.0744538106582634,-1.8358696584512968
0.3595148026943207,0.0350989028811466,9.198198318481445,0.29057982563972473,0.16261978447437286,0.0456159859895706,-5.717206001281738,-1.20114004611969,3.286757707595825,0.03775659933727097,0.07664499343652577,-1.8363564072245897
-1.4103238582611084,0.8164785504341139,11.039634704589844,-0.09139668941497803,-0.018458761274814606,-0.010833050124347208,-5.7206220626831055,-1.2272344827651978,3.2685492038726807,0.039709428684068335,0.07869204454599137,-1.8369577472732455
-0.044328343123197556,0.25232118368148915,9.191368103027344,-0.09414642304182053,0.030943023040890687,-0.061961032450199134,-5.724032402038574,-1.2546730041503906,3.2499632835388184,0.03571976426826278,0.07701308732302777,-1.837820053184138
-2.872040033340454,0.04168806970119611,11.005243301391602,-0.09276597201824188,-0.020978653803467754,-0.01763718761503696,-5.727519989013672,-1.2817643880844116,3.232015609741211,0.033877187483807324,0.07711856532818552,-1.8385428153511478
-0.9488278031349182,0.7047996520996105,9.254129409790039,0.0663275420665741,-0.09702438116073608,-0.011950174346566188,-5.732143878936768,-1.3183705806732178,3.2083115577697754,0.03447653519186286,0.0765445714376017,-1.8394190869085225
-1.7506729364395142,-0.0017210841178881486,10.253150939941406,-0.010207312181591988,-0.14671021699905396,0.009971721097826975,-5.736558437347412,-1.34617018699646,3.1903836727142334,0.034686603529262144,0.07202475490898361,-1.8400977579545408
0.6504663228988647,0.29492992162704595,10.625242233276367,-0.0784502699971199,-0.152373269200325,-0.02090553939342497,-5.741319179534912,-1.3737974166870117,3.17287540435791,0.03377062749027105,0.06871442148714643,-1.8404529745890963
0.8540271520614624,0.7886139750480663,9.49938678741455,-0.12160287797451019,-0.1985287368297577,-0.031034713611006712,-5.747867584228516,-1.411178708076477,3.149690628051758,0.02903800265737843,0.06261971783414884,-1.8427235975124738
-1.505295991897583,0.44952821731567516,10.94532299041748,0.09019342064857483,-0.157620370388031,-0.05222591385245321,-5.75264310836792,-1.438925862312317,3.1329894065856934,0.026584730665377226,0.05458447742869546,-1.845334004102646
0.5419468283653259,0.9498678445816052,10.323065757751465,0.18158577382564545,-0.04815068095922471,-0.033491823822259896,-5.75730037689209,-1.4672257900238037,3.115887403488159,0.028400371111058448,0.05237250512141868,-1.8464581422211463
-2.4492125511169434,-0.2331227362155901,10.885459899902344,0.22560878098011017,0.0556630939245224,-0.019418828189373023,-5.761935710906982,-1.4951097965240479,3.099055528640747,0.03722060843934041,0.05219350441890288,-1.8475296991425492
-0.5559102296829224,0.6898769736289989,9.061264038085938,0.2328510880470276,0.08132404834032057,-0.0828864872455597,-5.768194198608398,-1.532659649848938,3.076242446899414,0.04493544331136722,0.05318145320970078,-1.848722272534316
-2.262439489364624,0.254113852977754,11.099136352539062,0.1382666379213333,0.007045043632388117,0.015207288786768913,-5.773029804229736,-1.5602247714996338,3.0594677925109863,0.048039289970034774,0.05425728391275872,-1.8495821168103972
1.3539369106292725,1.2775537967681896,9.158989906311035,-0.09665201604366302,0.17943879961967465,-0.12564127147197726,-5.779731750488281,-1.5972846746444702,3.036926746368408,0.04996763843471131,0.0591015206657134,-1.8515294223131498
-0.6793208122253418,0.5849809646606458,10.27304744720459,-0.19575519859790802,0.0375436320900917,-0.07187901437282562,-5.784372329711914,-1.625124216079712,3.0218300819396973,0.045198216261793885,0.06302517817043886,-1.8520871140001114
1.8515141010284424,1.2756311893463146,8.76755142211914,-0.16622646152973175,0.08653169870376587,-0.006201377604156743,-5.789186477661133,-1.6533061265945435,3.006702423095703,0.043030925137213925,0.06402173399749683,-1.8522774615858097
-0.5587754249572754,0.2373832762241375,9.360100746154785,-0.1687912493944168,0.08931674808263779,-0.03373752906918527,-5.794056415557861,-1.6811401844024658,2.9920434951782227,0.03502760827890756,0.06719898689471814,-1.8527475262218196
0.34992367029190063,1.5172468423843397,10.107234954833984,-0.08859176933765411,-0.17422258853912354,-0.04599655047059057,-5.800654411315918,-1.7209973335266113,2.9706501960754395,0.027465903323236472,0.06633423710538626,-1.8541827604287195
-1.7773698568344116,0.030409019440413736,9.926252365112305,-0.12328986823558807,-0.17027203738689423,-0.02729288861155508,-5.805473804473877,-1.7507747411727905,2.9552369117736816,0.02576796986801187,0.06293392235279531,-1.8546996639440467
-0.8544818162918091,0.9055002927780166,11.431650161743164,0.05318994075059891,-0.22974593937397003,-0.019006364047527285,-5.8100433349609375,-1.780577540397644,2.9402763843536377,0.026953214086820915,0.05444950443643687,-1.855140517177035
-2.325728416442871,-0.11325673758983487,10.205716133117676,0.2638169229030609,-0.05885763466358184,0.031777765601873405,-5.814330101013184,-1.810194969177246,2.925100088119507,0.032990702021341474,0.0473043297749386,-1.8559431728670175
-0.617612898349762,0.3761458396911635,11.136831283569336,0.06546886265277863,-0.029606373980641365,-0.013990489766001698,-5.8194193840026855,-1.848380446434021,2.9043235778808594,0.03612194521640406,0.045835450199748995,-1.8561163169990762
-1.259125828742981,-0.3861859142780293,9.160778045654297,0.09697319567203522,0.23144368827342987,-0.012093297205865411,-5.823277950286865,-1.8767492771148682,2.8886544704437256,0.03860388600925464,0.05032819469392648,-1.856283997701537
1.2514376640319824,1.1528313159942638,9.780109405517578,-0.0884019061923027,0.17057839035987854,-0.04282507672905924,-5.828456401824951,-1.9146316051483154,2.8680901527404785,0.03871743760348233,0.05727319126920374,-1.856447523051238
0.7252476215362549,0.9139865040779127,10.664532661437988,-0.11327376961708069,0.15957756340503693,-0.0634502023458481,-5.83268928527832,-1.9436019659042358,2.8537633419036865,0.03860482421458572,0.06057000460159831,-1.8566810773432858
-1.2404688596725464,1.1956080198287977,11.336523056030273,-0.042184703052043915,0.11933408677577971,-0.07225802540779115,-5.836828231811523,-1.9725399017333984,2.839827299118042,0.04011459372965101,0.06595513272987119,-1.8569594662385498
-0.9706343412399292,0.9441629648208631,10.474235534667969,0.025197487324476242,-0.1002989262342453,0.03138925880193712,-5.8411736488342285,-2.0019006729125977,2.826079845428467,0.041618546204772795,0.06691625020642246,-1.8571622140963402
-1.478119134902954,0.5272002220153821,9.965385437011719,0.0035748002119362354,-0.2609805166721344,0.041660539805889164,-5.8470778465271,-2.040876865386963,2.8088791370391846,0.042074368440840636,0.06367035816162196,-1.8571088446104456
1.5796825885772705,0.8331982493400585,9.275885581970215,-0.08965160697698593,-0.28545552492141724,-0.003078870940953458,-5.850877285003662,-2.0712077617645264,2.795029640197754,0.03986996947537108,0.05411497725454655,-1.8585874326003358
-1.7888306379318237,0.3047538101673139,10.490761756896973,-0.07560709863901138,-0.10263905674219131,-0.031663924455642686,-5.854641914367676,-2.100980758666992,2.781874895095825,0.035270818833205264,0.04622944870994094,-1.8599466640893993
-0.3025306761264801,0.1833079457283032,9.678162574768066,0.01148143969476223,0.07859405130147934,-0.03585107997059823,-5.858367919921875,-2.1308698654174805,2.768449306488037,0.03391915153097107,0.046032466564348576,-1.8603169414652314
-1.3476811647415161,-0.18522548675536987,9.965450286865234,0.15362031757831573,0.0757887586951256,0.06998896598815917,-5.8629255294799805,-2.170410633087158,2.7508397102355957,0.035235544590896735,0.04858975139781934,-1.8601937130389312
0.8706972599029541,0.9063061475753796,9.835756301879883,0.11336087435483932,0.10563643276691437,-0.01068590581417085,-5.8658905029296875,-2.2008821964263916,2.737722158432007,0.039904954147211805,0.053189962521166256,-1.8599873199658563
0.8438112735748291,0.4935047924518598,10.221285820007324,0.19365565478801727,0.15039825439453125,-0.031023720279335993,-5.86893892288208,-2.231224298477173,2.7252235412597656,0.04203526474040441,0.05419743365302104,-1.8605246652655676
-1.331977128982544,0.5104454755783093,9.953950881958008,0.14125464856624603,0.16497434675693512,-0.023448077961802503,-5.873201370239258,-2.271556854248047,2.7095351219177246,0.05041974477549988,0.058823689974568695,-1.8622096244255377
0.16272583603858948,0.9663649797439589,10.734365463256836,-0.10235566645860672,0.04403628781437873,-0.043731667101383216,-5.876315593719482,-2.3022873401641846,2.697521448135376,0.05240219948782764,0.062060560508716764,-1.8622420334489918
-1.2470338344573975,0.10962791740894456,11.348123550415039,-0.17293547093868256,0.058926429599523544,0.010675379075109952,-5.879739284515381,-2.3334877490997314,2.6855154037475586,0.04975491157326514,0.06224883913577736,-1.8618895290995765
-0.5438105463981628,0.38610154390335205,9.974065780639648,-0.2772795557975769,-0.0640406757593155,-0.06349720060825347,-5.884575366973877,-2.3747315406799316,2.6704368591308594,0.042862805773040226,0.05996615438127033,-1.8618815082640248
0.9549016356468201,0.13647776842117423,9.197218894958496,-0.24771052598953247,-0.14278215169906616,-0.0013765407493337813,-5.888442516326904,-2.40584135055542,2.6591923236846924,0.031830796291815594,0.05553687710492463,-1.8628346107694966
1.409589171409607,0.6578657627105725,9.775128364562988,-0.14531558752059937,-0.13278985023498535,-0.010442769154906257,-5.892021656036377,-2.4372756481170654,2.6482744216918945,0.027737736520208608,0.0521683036078041,-1.8631178878198058
0.1726539433002472,1.4024094343185438,10.86185359954834,0.10595015436410904,-0.0694129690527916,0.013784661889076242,-5.896363735198975,-2.4795167446136475,2.634232759475708,0.02631728711423363,0.04525482221434704,-1.8627582740733466
-1.8172506093978882,0.297035396099092,11.88631820678711,0.15549300611019135,0.04716411232948303,0.02309060283005237,-5.899533748626709,-2.5108766555786133,2.6243441104888916,0.030598832090437556,0.04458984323614552,-1.8623296744601736
-1.4259334802627563,0.4783740639686598,10.762102127075195,0.20477814972400665,0.08061593770980835,0.03613470122218131,-5.902591228485107,-2.5420451164245605,2.6149606704711914,0.03404522120736693,0.04571919442493922,-1.8620645656957997
-0.1267727017402649,0.5004037618637096,8.71811294555664,0.06387130916118622,0.18762622773647308,0.03523241728544233,-5.905801296234131,-2.573244333267212,2.605701446533203,0.03992092195276005,0.05271492773356831,-1.8617737471425766
-0.3718109726905823,0.7965257167816174,9.65429401397705,-0.0027928855270147324,0.13539227843284607,0.04826223850250243,-5.909080982208252,-2.614941358566284,2.593698740005493,0.03909789576552901,0.05957877105930257,-1.8612403403604776
0.507779061794281,0.5157786011695873,8.629520416259766,-0.13468557596206665,-0.012004443444311627,-0.07372597604990005,-5.911805629730225,-2.6466009616851807,2.58508038520813,0.03757699598852111,0.060351733013374355,-1.8613381908664384
0.11505969613790512,0.3712054193019879,10.149703025817871,0.20614151656627655,-0.6003497242927551,0.00030721636721871694,-5.914610385894775,-2.678245782852173,2.5771520137786865,0.03954571606160336,0.05326466939243347,-1.8615042979196048
-0.27149081230163574,-0.03687970712780812,11.435564041137695,0.5091789364814758,-1.6916483640670776,0.07176470011472723,-5.917544841766357,-2.7219419479370117,2.567425012588501,0.054053012587447324,0.010327280735865568,-1.8619075745128177
-1.327636957168579,0.28657117486000194,10.789665222167969,0.5033115744590759,-1.8516582250595093,0.08868278563022636,-5.920039653778076,-2.753906488418579,2.5615150928497314,0.06631369260038855,-0.03502248418630101,-1.8635671064474255
-1.2592464685440063,1.0041108131408703,9.17243480682373,-0.008208166807889938,-0.39213413000106806,0.35873293876647955,-5.922693729400635,-2.7841014862060547,2.5556743144989014,0.07345906290155299,-0.08273244409571885,-1.856819543362201
-0.5006912350654602,-1.250152826309203,8.808450698852539,-0.6355426907539368,1.2068872451782227,0.3686718344688414,-5.926218509674072,-2.820847511291504,2.5477712154388428,0.05253343777985398,-0.060854898649797214,-1.838353376027994
-1.0735901594161987,0.039019510149956915,9.54201602935791,-0.4821946322917938,1.5448044538497925,0.5022360086441038,-5.928520202636719,-2.846578359603882,2.542217254638672,0.04300658900694811,-0.03958218569614525,-1.830798588518925
1.0458118915557861,0.5156991481781017,8.647502899169922,-0.3808228075504303,1.4619154930114746,0.4257133305072783,-5.9307684898376465,-2.8721632957458496,2.5369882583618164,0.024882466742785245,0.023672705523559632,-1.8100959105022665
0.302218496799469,1.7521719932556166,11.619414329528809,0.040365882217884064,0.6899403929710389,0.5021139979362487,-5.93280029296875,-2.897881507873535,2.5327084064483643,0.020258264224981965,0.069586738150926,-1.7891035203095407
-0.871580958366394,0.724440157413484,10.796037673950195,0.13831324875354767,0.3532711267471314,0.4705789387226104,-5.93452787399292,-2.9335765838623047,2.527768611907959,0.023122430132008993,0.08074197290099046,-1.7789397507490745
0.026169296354055405,0.18898728489875927,10.92859935760498,0.013473793864250183,0.01016143523156647,0.34278085827827454,-5.9357991218566895,-2.961016893386841,2.5246663093566895,0.03017792427158931,0.08636097782402953,-1.7612471202339983
0.597527801990509,0.6605830788612379,10.454712867736816,-0.024133551865816116,-0.2809185087680816,0.4710333645343781,-5.937069416046143,-2.9890682697296143,2.521998643875122,0.03405373986122419,0.07975309875984664,-1.7438494297075724
-0.7225102782249451,-0.10862207412719593,10.842451095581055,-0.13417653739452362,-0.22692707180976862,0.37436878681182867,-5.939122200012207,-3.026806116104126,2.518948554992676,0.03461511902652037,0.07377690724770496,-1.735119608555901
-0.10511688888072968,1.3847501277923593,8.008316993713379,-0.06598265469074249,-0.09476154297590254,0.0594071000814438,-5.9394121170043945,-3.05527400970459,2.5148468017578125,0.0339056162932713,0.06655929490771849,-1.7316367929876584
-0.07855232805013657,0.44550499320030323,8.987164497375488,0.0509282685816288,-0.2182677537202835,0.0704818665981293,-5.93984842300415,-3.0840375423431396,2.5107014179229736,0.0353741983867707,0.05998678752703536,-1.7288073864405449
-0.7522047162055969,0.6357360482215895,10.781990051269531,0.1116597130894661,-0.2774948179721832,0.10146649181842807,-5.940487861633301,-3.1223976612091064,2.5057973861694336,0.036865052039432286,0.05563460341959799,-1.7276804325018709
0.0009397631511092186,1.0300320386886608,8.94741439819336,-0.0992124155163765,-0.18434853851795197,0.021567758172750497,-5.9408793449401855,-3.151315450668335,2.5025761127471924,0.037090919627602414,0.048263106572208385,-1.7270875632974998
0.17330706119537354,0.112424582242967,10.61279582977295,-0.13403774797916412,0.06917574256658554,0.017099479213356965,-5.94096040725708,-3.179723024368286,2.5002219676971436,0.032811528695748264,0.045184093045522275,-1.72597001636844
0.7711145877838135,0.6413869857788098,10.096453666687012,-0.09985015541315079,0.10679591447114946,0.06790512800216673,-5.941024303436279,-3.2078099250793457,2.4981980323791504,0.031311842070607714,0.04653651890996775,-1.7247708040132816
1.3132518529891968,0.7221568226814281,9.359987258911133,0.05616411566734314,0.2224162518978119,0.07945805042982099,-5.941056728363037,-3.2454636096954346,2.4955451488494873,0.02972089536956228,0.055092992109179895,-1.7227349479229424
-1.6018970012664795,0.0017104633152497182,10.034799575805664,0.20302215218544006,0.06763549894094467,0.054695345461368554,-5.940639972686768,-3.2749176025390625,2.493446111679077,0.03226396295609679,0.06124205779214893,-1.722082461154482
-1.3124017715454102,0.1943262219429029,10.33680534362793,0.2095128297805786,0.0786428451538086,-0.031211340799927722,-5.940062046051025,-3.3051085472106934,2.4914376735687256,0.037001977703053135,0.06303125890773523,-1.7220631027721205
-1.7980211973190308,0.11883313208818558,9.930482864379883,0.11317920684814453,-0.07068083435297012,-0.04177556559443473,-5.939483165740967,-3.345154285430908,2.4895920753479004,0.0451928166452916,0.061192121197425495,-1.7210020907420045
0.05234995484352112,0.07419795542955528,10.540913581848145,0.13328756392002106,-0.19760450720787048,0.06676945835351947,-5.939302444458008,-3.3756940364837646,2.487968683242798,0.04899174398972142,0.055227966879604226,-1.7203293341795967
0.0037446534261107445,0.5876350402832043,9.841249465942383,-0.024346616119146347,-0.08076965808868407,0.08039890974760057,-5.939037799835205,-3.4061453342437744,2.4857981204986572,0.04825524489836939,0.053033989088416215,-1.7198484368849913
-0.4062974452972412,0.9776408076286328,10.250572204589844,-0.008777102455496788,-0.041356958448886864,0.05940703675150872,-5.938788414001465,-3.44675612449646,2.4822816848754883,0.046628361363352785,0.04990540586627458,-1.7189072615086944
-0.9562947154045105,0.4621949195861828,9.483450889587402,-0.0015107314102351665,-0.09538407623767853,-0.0021891784854233148,-5.938775062561035,-3.477468729019165,2.4796524047851562,0.046195524954357005,0.04591243090749451,-1.718773064474511
-0.6434786319732666,0.8566412925720227,10.088645935058594,0.13413134217262268,-0.05874902009963989,-0.01809104345738887,-5.938943862915039,-3.5076847076416016,2.4777586460113525,0.04697789213523146,0.04397526031315098,-1.719078017161585
-0.5875070095062256,0.6674413084983837,9.406669616699219,0.10728233307600021,0.011040043085813528,0.0419904850423336,-5.939273834228516,-3.548185348510742,2.475543737411499,0.05068283915213533,0.04408246462005334,-1.7192511858294914
0.3505209684371948,0.42178589105606207,10.418858528137207,-0.10074326395988464,0.004134310875087978,0.01470168586820364,-5.939501762390137,-3.579679489135742,2.475159168243408,0.05087718837233632,0.044217582704304786,-1.7184184410601424
0.46827226877212524,0.6445862054824842,10.637974739074707,-0.18168972432613373,0.031220903620123867,0.026170091703534123,-5.9399213790893555,-3.6107778549194336,2.4751229286193848,0.04852926348163461,0.044280688735449915,-1.7181832040693172
-1.077270746231079,-0.15153869986533997,10.030464172363281,-0.2566111981868744,0.02754289843142032,-0.06931997835636139,-5.94050407409668,-3.641934394836426,2.4748945236206055,0.039945537387578445,0.044629133084239714,-1.7184827330153516
0.5837826728820801,0.7976943254470837,10.185203552246094,-0.08243820816278458,-0.08769895881414413,-0.043846037238836275,-5.939288139343262,-3.6837081909179688,2.473264694213867,0.033207949700184265,0.04062465662636717,-1.7192012613646865
-1.7978264093399048,0.6002235412597668,10.07436752319336,0.06788147985935211,-0.0806722566485405,0.017743656411767016,-5.938319683074951,-3.714860439300537,2.472318172454834,0.03352108246651843,0.037818414998234295,-1.7189729638016564
-1.0642168521881104,0.4366808235645307,10.586325645446777,0.20068465173244476,-0.053455516695976264,-0.04972311854362487,-5.9373273849487305,-3.7459771633148193,2.4715325832366943,0.04147215539468617,0.03298695586194212,-1.7189236117626427
-0.6214547157287598,0.3330543935298933,10.661486625671387,0.22837410867214203,0.07601995021104814,0.057233873754739754,-5.93641471862793,-3.7769272327423096,2.470958709716797,0.048478378418298454,0.032753996708490885,-1.7192653147470782
0.657075047492981,0.47773638367652993,8.111800193786621,0.02679775469005108,0.20388609170913696,0.0023898619692772375,-5.93564510345459,-3.8190762996673584,2.46960711479187,0.05114359412868594,0.036221977606407975,-1.7196073118375133
-1.299212098121643,0.1799688786268246,9.592940330505371,-0.0967966839671135,0.10204052180051804,-0.003721276298165334,-5.935357570648193,-3.8503148555755615,2.4689693450927734,0.05121540795327135,0.04346124201139715,-1.7197366425094847
1.0689538717269897,0.8026924133300792,9.338799476623535,-0.012264218181371689,0.010343499481678016,0.06260795891284943,-5.935149192810059,-3.892082691192627,2.468417167663574,0.04829783904781096,0.04491683614357147,-1.7204733242077708
1.2367851734161377,1.3822779655456554,9.5435152053833,-0.02508677914738655,0.07869736850261688,-0.01236705668270589,-5.93406867980957,-3.924710750579834,2.4676222801208496,0.04791403677841533,0.046299601833099564,-1.7207693776736082
-1.2212363481521606,0.39882299304008617,11.033096313476562,0.10185350477695465,-0.1304124891757965,-0.01723996363580225,-5.933187484741211,-3.957120895385742,2.4670474529266357,0.050215151181840896,0.045309431874750644,-1.7211096751129906
0.053923413157463074,0.15763255953788868,9.015460014343262,0.12343136221170425,-0.1904933601617813,-0.016625924035906767,-5.93254280090332,-3.9894611835479736,2.4666507244110107,0.054754738867779824,0.03670797176132189,-1.7215327766843669
1.29302179813385,0.8934054374694835,9.25172233581543,-0.011952481232583523,-0.1966087818145752,-0.03680744022130964,-5.931946277618408,-4.032683372497559,2.466101884841919,0.05611637600588782,0.0323448096715954,-1.7220938322270605
-1.9459714889526367,-0.14905878901481506,9.909914016723633,-0.13783575594425201,-0.144860178232193,0.05096842348575594,-5.931824207305908,-4.063752174377441,2.465602159500122,0.05285887666206123,0.026203033232359594,-1.7237930399370103
1.2122838497161865,0.9764726758003246,9.112152099609375,-0.24844717979431152,0.07919605076313019,0.002555420389398923,-5.931780815124512,-4.094768047332764,2.4650866985321045,0.04306793882339791,0.026209060829586017,-1.7234327588616742
0.22843816876411438,1.2200758457183851,9.982500076293945,-0.21408063173294067,0.2450805902481079,0.004790551494806975,-5.931788921356201,-4.135660171508789,2.464694023132324,0.03880375035325081,0.02981429112644634,-1.722871662945959
0.526938259601593,1.2146725654602064,10.014077186584473,-0.09671542793512344,0.230527862906456,-0.06803704798221591,-5.9312849044799805,-4.166452884674072,2.464648962020874,0.035032452195094314,0.03859454969271719,-1.7227984942894337
-0.7215960025787354,0.3900221288204205,9.625421524047852,0.2369307279586792,0.022585203871130936,-0.05971434339880943,-5.92990255355835,-4.198091983795166,2.464643955230713,0.03853741543130081,0.04235056341246804,-1.7233185549765342
1.5538086891174316,1.003511667251588,8.918911933898926,0.27669525146484375,0.005540017969906335,0.040676191449165344,-5.928051948547363,-4.240624904632568,2.4646620750427246,0.04196169341490824,0.043264053382594064,-1.72324676684902
-1.5947902202606201,-0.059112485498188684,10.147673606872559,0.07754135131835938,-0.15230005979537964,0.03396218642592432,-5.9269585609436035,-4.2721381187438965,2.465258836746216,0.050310608868112366,0.041298764768114685,-1.7228915558456754
0.13685588538646698,0.6095524430274974,9.323149681091309,-0.06758689135313034,-0.03211537003517151,-0.016948478296399113,-5.9259934425354,-4.304110050201416,2.465643882751465,0.05183092429059415,0.03791119941876383,-1.7229514248673647
-0.9988822937011719,0.30306366086006276,9.116535186767578,0.0699254721403122,-0.010075956583023061,0.08133614808320999,-5.925055980682373,-4.335958957672119,2.4657838344573975,0.05163793441486463,0.03764955314767545,-1.7223350159833355
0.9215619564056396,0.8538699746131907,8.385733604431152,-0.018190626055002213,0.052630085498094566,0.030949736014008515,-5.923900604248047,-4.37855863571167,2.4652419090270996,0.05285037223377591,0.03898544254636158,-1.7215004190904
-1.9554249048233032,0.490823566913606,10.376461029052734,0.10626819729804993,-0.008416833356022831,0.02777082659304142,-5.923116207122803,-4.4102888107299805,2.465003490447998,0.055279470363749084,0.0394733428812342,-1.720670526134807
-1.4257179498672485,0.11266833543777605,11.354239463806152,0.10903068631887436,-0.02394388802349567,0.03314473479986191,-5.922523021697998,-4.441617488861084,2.4649860858917236,0.056976669093985015,0.039083654852749124,-1.7206883370404031
-0.979218065738678,0.8345796465873732,10.483315467834473,0.07027409970760345,0.02230532094836236,0.08060645312070847,-5.92188835144043,-4.482797622680664,2.4655983448028564,0.060089494886999543,0.04014945853884562,-1.7195098927902386
-1.4838547706604004,0.33678162097931025,9.723257064819336,-0.030873818323016167,-0.044946696609258645,0.04069479182362557,-5.921534061431885,-4.513881683349609,2.466168165206909,0.06243977593340925,0.04007584111365729,-1.717453504282449
0.6685052514076233,0.3367686271667492,9.71440601348877,-0.14777351915836334,-0.017652006819844246,-0.012043670751154421,-5.921468734741211,-4.544834613800049,2.4668121337890625,0.06123377243855928,0.03927716021913482,-1.7167082819179325
-1.4391515254974365,0.02416347153484942,9.8724365234375,-0.21886861324310303,-0.08236447721719742,0.020848270505666743,-5.921511650085449,-4.585811138153076,2.4676406383514404,0.053930278985013,0.03856824182083912,-1.7161369336308265
0.6292511820793152,0.9881852865219128,10.17514705657959,0.0047275349497795105,-0.17493367195129395,0.07246471941471103,-5.920422077178955,-4.617016315460205,2.4678943157196045,0.048234053806149736,0.03446028574622367,-1.7157273130459274
-0.12116612493991852,0.9161058068275464,10.313117980957031,0.016920115798711777,-0.02002832666039467,-0.002250929828733203,-5.91911506652832,-4.647881507873535,2.4684741497039795,0.048089664676865325,0.03278148219782139,-1.7154897039234906
0.6107155084609985,0.8081513047218333,8.214235305786133,-0.005417782813310623,0.029439646750688546,-0.07031113654375076,-5.917682647705078,-4.678848743438721,2.469031572341919,0.049649989678246034,0.03170297588270672,-1.7156264557645469
