imu_accel_x,imu_accel_y,imu_accel_z,imu_gyro_x,imu_gyro_y,imu_gyro_z,x,y,z,roll,pitch,yaw
0.09997784346342087,0.4405222833156598,9.788819313049316,-0.0008895087521523237,-0.00031168386340141275,0.0015977888833731413,-3.5046756267547607,-3.9018402099609375,-6.510120391845703,0.045619271495608106,-0.010126211698378714,2.3840305945649014
0.09357668459415436,0.43661490082740906,9.794124603271484,0.00037305059959180653,0.0001784360501915219,0.0019637420773506165,-3.505922317504883,-3.9043021202087402,-6.508697032928467,0.045648568152450684,-0.010160906691229512,2.384040637113427
0.10324558615684509,0.43895968794822815,9.782402992248535,-0.0005046117585152388,0.00034393102396279595,0.0016734317177906632,-3.5073888301849365,-3.9071695804595947,-6.506960868835449,0.04561695249136654,-0.010150588265128636,2.3840533568610063
0.09953366965055466,0.4413932561874402,9.798750877380371,0.0006009553908370435,-0.0007395131979137658,0.0011240278836339712,-3.508361577987671,-3.909044027328491,-6.505772590637207,0.04557902421998024,-0.010138401107209618,2.3840643115712497
0.10091469436883926,0.4388541579246533,9.784019470214844,4.1002786019816995e-05,0.0010128357680514457,0.0017849993892014024,-3.5102698802948,-3.9107913970947266,-6.5054097175598145,0.04555202553424384,-0.01012061509822047,2.3840664270629164
0.09572096914052963,0.44341471791267517,9.790509223937988,-0.0002780623617582023,-0.0003688135184347627,0.0020638075657188892,-3.5120294094085693,-3.912320613861084,-6.50514554977417,0.045495922653836784,-0.010057973970858825,2.3840778493911436
0.09980534017086029,0.4367313086986554,9.798911094665527,0.0006075457786209881,-0.00019821047317236638,0.001969090662896633,-3.5141639709472656,-3.9140543937683105,-6.5047712326049805,0.04547253490057756,-0.01002884063514161,2.3840723779705693
0.09989622235298157,0.43256160616874817,9.79065227508545,0.00016438198508694768,-0.00037338281981646993,0.001900982460938394,-3.514829397201538,-3.9159255027770996,-6.504474639892578,0.04543779619146242,-0.009969582681818284,2.3840836632622247
0.10774816572666168,0.4336044490337384,9.795360565185547,0.00061175471637398,-0.0006951079703867432,0.0027352434117347,-3.5139048099517822,-3.9190773963928223,-6.503952980041504,0.04540297781941769,-0.00998128992236168,2.384097387016592
0.09940683841705322,0.4479331970214856,9.789830207824707,8.471414912492037e-05,0.0002573669189587237,0.0014856487978249788,-3.5130202770233154,-3.9219207763671875,-6.503462314605713,0.045399867172296486,-0.009990060896223705,2.384106845461122
0.10770201683044434,0.44139426946640137,9.797369956970215,-0.0001849168911576271,0.0009536290308460595,0.0017161195864900944,-3.5118842124938965,-3.9252889156341553,-6.502895832061768,0.04538500793438655,-0.010040508028805453,2.3841173672530833
0.10054999589920044,0.4344161152839673,9.794970512390137,0.0005928042228333652,-0.0003683186369016765,0.0015133589040488005,-3.510892629623413,-3.927478790283203,-6.5024285316467285,0.04537725674421612,-0.010094755400400043,2.3841297821564837
0.10226750373840332,0.4377255141735089,9.7921781539917,-0.00023123639402911067,0.0002488010795786979,0.0015532600227743387,-3.5092148780822754,-3.9299046993255615,-6.501611709594727,0.04540315602201891,-0.010129742928883266,2.3841419160210737
0.10513870418071747,0.43439993262291077,9.800743103027344,0.0001340425806120038,0.00037042109761387137,0.002185672987252474,-3.5080206394195557,-3.931480646133423,-6.501100540161133,0.04542272948134472,-0.0101417378135408,2.3841539549250643
0.10619917511940002,0.44287639856338623,9.789107322692871,0.0004863571375608444,0.00044918752973899267,0.0017223609611392021,-3.5068747997283936,-3.932868242263794,-6.5006866455078125,0.04545348865162927,-0.010183313048139932,2.384165644949525
0.11268821358680725,0.43938279151916626,9.78663444519043,0.0014071366749703884,-0.0008413640316575762,0.002325834473595023,-3.5078251361846924,-3.934509038925171,-6.499594688415527,0.04548120836985436,-0.010188302572618822,2.3841649049787113
0.11354925483465195,0.44373980164528015,9.792535781860352,0.00012300987145863473,-0.00011437176726758462,0.0014202643651515245,-3.5102648735046387,-3.9366579055786133,-6.497890472412109,0.045445137404618245,-0.010129342890924674,2.3841849368051045
0.10511206835508347,0.44048872590065125,9.796671867370605,0.00014331752026919276,-0.0004605615977197884,0.0011998474365100265,-3.5119378566741943,-3.9380390644073486,-6.4967942237854,0.0453975225392443,-0.010052855220133557,2.3841768365405334
0.10541395097970963,0.4328885674476636,9.795472145080566,0.0007034646114334464,0.0009414270753040912,0.0019738900009542704,-3.5134928226470947,-3.9392433166503906,-6.4958014488220215,0.04537228361525849,-0.010011823916836303,2.3841772572865687
0.09441770613193512,0.4388174414634717,9.798861503601074,0.00010376176214776933,0.00012624915689229984,0.0014392462326213717,-3.5159265995025635,-3.9422104358673096,-6.49444580078125,0.045289767469993907,-0.009936686680953249,2.384182823720129
0.1142221987247467,0.4313021302223218,9.787790298461914,0.00018636122695170343,0.0002928583417087796,0.002040693536400795,-3.5189321041107178,-3.945727586746216,-6.493270397186279,0.04518060980774137,-0.00986953256344035,2.384186132405589
0.11353980749845505,0.4329625666141522,9.794889450073242,-0.000685119885019958,-0.0003669713623821733,0.001956367865204811,-3.521024703979492,-3.9480719566345215,-6.492795467376709,0.04509767745667722,-0.009826279904258292,2.3841875982897878
0.09657354652881622,0.4357936680316937,9.804328918457031,5.1479553803801537e-05,0.0004577934741973879,0.001564646139740944,-3.5235772132873535,-3.950704574584961,-6.492042541503906,0.04503926363053515,-0.00979953460839058,2.3841908416939117
0.09403787553310394,0.44590383768081787,9.799322128295898,-0.000761265167966485,0.0010487363906577232,0.0020514526404440403,-3.525275230407715,-3.9521114826202393,-6.490774154663086,0.04497944085663072,-0.009755739553427012,2.3841903036950742
0.11719025671482086,0.4468776583671582,9.788201332092285,0.0004582571564242244,0.0002783602103590967,0.0014660905580967665,-3.5268750190734863,-3.953343152999878,-6.489441871643066,0.04495894147181101,-0.00973410624145639,2.3841821737806543
0.10430075228214264,0.43437570333480957,9.801603317260742,-0.00040451434324495494,0.000316159217618406,0.0012468643253669143,-3.528383255004883,-3.954413652420044,-6.4882354736328125,0.0449487846015609,-0.009710435022726407,2.3841887409682774
0.10541554540395737,0.43037623167038086,9.792546272277832,0.00031950484844855964,0.0002735812449827792,0.0013399289455264807,-3.5311357975006104,-3.9559388160705566,-6.486364841461182,0.04494087342583006,-0.009666380470952833,2.3841906081763744
0.0964018851518631,0.44707030057907227,9.803098678588867,0.0003557396703399718,0.00048553477972745917,0.0015709087019786239,-3.5336971282958984,-3.9571332931518555,-6.484622478485107,0.044928116990444064,-0.009640974899721672,2.3841924497252243
0.0964018851518631,0.44707030057907227,9.803098678588867,0.0003557396703399718,0.00048553477972745917,0.0015709087019786239,-3.5361146926879883,-3.958167552947998,-6.4830803871154785,0.04491051036778001,-0.009579061864076973,2.3841970698887307
0.10562657564878464,0.43784362077713135,9.794130325317383,-5.0400180043652654e-05,0.0010846634395420553,0.001015958492644131,-3.539133310317993,-3.959322452545166,-6.481349945068359,0.044895109587189286,-0.009524010502738397,2.384199337913215
0.1036122515797615,0.4339469671249402,9.798308372497559,0.0005492575000971556,0.0008130868081934752,0.0016399348387494683,-3.5412559509277344,-3.9600348472595215,-6.480132102966309,0.04487248305651051,-0.009472935020538349,2.3841996902239484
0.1041063591837883,0.4374617934227002,9.797951698303223,4.069122951477766e-05,0.0006360429106280209,0.0009543921332806348,-3.539957284927368,-3.963703155517578,-6.478675842285156,0.04486757205678111,-0.009484180709349437,2.3841993511159845
0.10264968872070312,0.44558221101760986,9.793253898620605,-0.00034716297523118556,-0.0005417792126536367,0.0017952700145542622,-3.5384066104888916,-3.968102216720581,-6.477126598358154,0.04486010883924022,-0.009591547641559223,2.384203054707691
0.1063346266746521,0.4400379061698926,9.795509338378906,-0.0007008353713899851,-0.0006946253124624489,0.0017621731385588646,-3.537353038787842,-3.971074104309082,-6.476112365722656,0.0448604996943024,-0.00964274700062517,2.3842037427934115
0.11524911224842072,0.4372944235801709,9.798638343811035,0.0005616034031845629,-0.0002808838617056607,0.0010394443525001407,-3.5376994609832764,-3.9740540981292725,-6.473762512207031,0.0448533611468634,-0.009757481206378534,2.384210826288165
0.10621911287307739,0.43676632642746094,9.79638385772705,-0.00040424554026685655,0.0004998291260562838,0.0009878617711365223,-3.538038492202759,-3.9767701625823975,-6.471691131591797,0.04483642525130013,-0.009809661417526472,2.3842278526742606
0.10924629867076874,0.4301286637783063,9.7883882522583,-0.00012619435437954962,-0.0006622812943533061,0.002108665183186531,-3.5384886264801025,-3.980015277862549,-6.4691596031188965,0.044818768763304116,-0.009838275414266927,2.3842366844573255
0.10072146356105804,0.4264279603958142,9.79382610321045,0.00038690026849508286,-3.2471725717184446e-06,0.0020261856261640787,-3.5392723083496094,-3.9822425842285156,-6.4673027992248535,0.04481112785573285,-0.009879251557754007,2.384257534644372
0.10290545225143433,0.4344752132892621,9.803548812866211,-1.1873897165060043e-05,-0.0002664478961378333,0.002401137026026845,-3.540898084640503,-3.984348773956299,-6.465453624725342,0.04477591735979253,-0.009855148960303052,2.3842766612867043
0.10199857503175735,0.4389513432979596,9.802643775939941,-0.0004828481178265065,0.0002939052646979692,0.001857555704191327,-3.5429506301879883,-3.9868407249450684,-6.463359355926514,0.04473091905831014,-0.009812380299874674,2.384288976572827
0.09947571903467178,0.4296977221965802,9.795156478881836,-0.00030395694193430245,0.00041197775863111035,0.0015074263792484999,-3.5444176197052,-3.988494634628296,-6.462193012237549,0.04470660333000122,-0.009778737122687908,2.384286616838548
0.10316003113985062,0.43386176228523377,9.7987699508667,0.0015085912309587002,-0.0004147617146372793,0.0017340717604383826,-3.54585599899292,-3.989675998687744,-6.461145877838135,0.04468231306356851,-0.009721133949828088,2.3843098041358353
0.10316003113985062,0.43386176228523377,9.7987699508667,0.0015085912309587002,-0.0004147617146372793,0.0017340717604383826,-3.547297716140747,-3.9901232719421387,-6.460255146026611,0.04468399480411403,-0.00968977907637873,2.3843116821029056
0.1071876659989357,0.4338975846767438,9.808794021606445,0.0003426621260587126,0.00046518124872818605,0.0012507272185757756,-3.549154758453369,-3.9905593395233154,-6.459321022033691,0.04469513434881576,-0.009609922703064286,2.384333537889898
0.10955924540758133,0.4355288147926343,9.794839859008789,-0.00038748825318180025,0.0002750571584329011,0.0016982818488031626,-3.550501823425293,-3.990779399871826,-6.458714962005615,0.04470052776045473,-0.00953547292941231,2.384344206869288
0.1041724905371666,0.44057327508926514,9.794710159301758,0.00037277062074281275,-8.678797166794525e-05,0.001086173695512116,-3.55222487449646,-3.99293851852417,-6.458064556121826,0.04471155476685713,-0.009503775530599723,2.3843480974637976
0.0938786193728447,0.44087409973144653,9.799272537231445,4.730233922600746e-05,0.0002601501764729621,0.0019485884113237262,-3.554706573486328,-3.9967758655548096,-6.457092761993408,0.04465339745138755,-0.009479724724726357,2.3843767501296527
0.09761684387922287,0.441360265016557,9.79127025604248,0.0005513134528882802,-0.00038300489541143157,0.0019903364591300488,-3.5564985275268555,-3.999363899230957,-6.456347942352295,0.04459121682721431,-0.009460084593768918,2.384403229814639
0.10351529717445374,0.4290464818477643,9.79581069946289,-7.091154111549258e-05,6.964197382330923e-05,0.0022869668900966644,-3.558234214782715,-4.001734256744385,-6.455586910247803,0.04455227133788605,-0.00946487631525189,2.3844157678701365
0.1043391153216362,0.44388028979301575,9.799910545349121,-0.0006076447898522019,-9.764393325895055e-05,0.0012847878970205784,-3.5563549995422363,-4.002678394317627,-6.454390048980713,0.04450484631664835,-0.00948525764153005,2.3844275083008464
0.10602770745754242,0.4482536017894757,9.799986839294434,-8.675141725689173e-05,0.0005995292449370028,0.0012851296924054623,-3.551866292953491,-4.0029706954956055,-6.45285177230835,0.044621904106547115,-0.009566734882409257,2.384428723729478
0.11518298089504242,0.43975245952606323,9.807808876037598,0.0007057012990117073,0.0012910059886053207,0.001297072973102331,-3.54880952835083,-4.003100395202637,-6.451870918273926,0.04473167077873311,-0.009644455307023087,2.384430670887895
0.10329625010490417,0.4321049153804791,9.805248260498047,-0.0009864738676697016,-8.636072743684033e-05,0.0016148991417139769,-3.544783592224121,-4.003235816955566,-6.4512810707092285,0.0448189221818835,-0.009683040077665081,2.384431728626445
0.11031241714954376,0.4436921477317822,9.799647331237793,0.00012055975093971938,-4.7286157496273335e-05,0.0015129332896322012,-3.5413706302642822,-4.003409385681152,-6.452096939086914,0.044948250845664374,-0.00975751439513501,2.384431057638561
0.10158277302980423,0.4256841838359845,9.796899795532227,-0.0002082737919408828,-6.779131945222592e-05,0.0020194516982883215,-3.5382144451141357,-4.0035014152526855,-6.452925682067871,0.045030051654297895,-0.009798894738891253,2.3844342905767064
0.10331141948699951,0.43063899874687317,9.800277709960938,0.00040740869008004665,0.00028484885115176456,0.0011633794056251645,-3.5352911949157715,-4.0035200119018555,-6.453709125518799,0.04513686808579384,-0.009840975358381493,2.3844285552218505
0.10705572366714478,0.43520918488502625,9.808084487915039,-0.00012157027958892286,0.0005893717170692984,0.002414145041257143,-3.5312981605529785,-4.0045084953308105,-6.455288887023926,0.0452468583031363,-0.009895228607762471,2.3844426407658155
0.09422153234481812,0.43549594283104065,9.800056457519531,-0.0002990130742546171,-0.00015629583504050957,0.0010772724635899067,-3.5282552242279053,-4.00588321685791,-6.456807613372803,0.0452603403083126,-0.009916786802670115,2.384440992707709
0.09586847573518753,0.44569924473762634,9.798111915588379,0.00010786483471747488,-0.00033853191416710593,0.001706709386780858,-3.5254430770874023,-4.007102966308594,-6.458212375640869,0.04529335649488161,-0.00996617727596831,2.384443691620325
0.10565821826457977,0.42726808786392334,9.793733596801758,-0.0007014649454504251,-0.00012736010830849385,0.001943935640156269,-3.5220248699188232,-4.008517742156982,-6.460029602050781,0.04530273833931718,-0.010003245812627222,2.3844508946595298
0.10330776870250702,0.4422377943992627,9.808676719665527,-7.046098471619189e-05,-0.00013186666183173637,0.001510266913101077,-3.519688606262207,-4.009436130523682,-6.461273193359375,0.04529250805481588,-0.010025581475868873,2.3844462233364836
0.10308430343866348,0.4322628378868115,9.788057327270508,0.00010284368181601167,-7.892958819866156e-05,0.0019436017610132694,-3.5157902240753174,-4.01007080078125,-6.463386058807373,0.04529629976585277,-0.010041706053470616,2.384444788321911
0.1049591675400734,0.43394199013710144,9.794468879699707,0.0004394776187837124,-0.00012516009155660851,0.0012883690651506186,-3.5110318660736084,-4.010753631591797,-6.465729236602783,0.04533250586483172,-0.010078610136215796,2.3844347449771783
0.10193806141614914,0.4409964978694928,9.802976608276367,-0.00012509393854998052,0.0001614016946405174,0.0013448010431602597,-3.507758378982544,-4.011159420013428,-6.467179775238037,0.045352876424966146,-0.010084366837439606,2.3844240240103183
0.100868359208107,0.43917211890220764,9.799964904785156,-0.00046053636469878256,0.0002015081699937583,0.0008362807566300035,-3.5037100315093994,-4.010906219482422,-6.469290733337402,0.045401517517223974,-0.01010079669932459,2.38441748880474
0.09646514803171158,0.4399019181728375,9.795954704284668,0.0007113938918337226,0.00024444703012704866,0.0013597551733255386,-3.499952554702759,-4.010599613189697,-6.471224784851074,0.04547882475912769,-0.010111721285146405,2.3844145069497675
0.10206642746925354,0.44905424118042114,9.79633617401123,-7.256798562593758e-05,-0.0002270550467073915,0.0019484508084133267,-3.4953536987304688,-4.010115623474121,-6.473737716674805,0.04551217242854232,-0.010113358269319908,2.3844183681432702
0.10336081683635712,0.4390671253204358,9.800212860107422,0.0003395026724319905,0.00030979665461927663,0.0008308221586048603,-3.491824150085449,-4.009734630584717,-6.4758076667785645,0.04557219253575275,-0.010119729789385004,2.384408867584742
0.10330589860677719,0.44807624816894653,9.790264129638672,-0.0004010762495454401,0.00042905868031084554,0.001118386397138238,-3.487853765487671,-4.009368419647217,-6.478471279144287,0.04562208965508385,-0.010120358914535055,2.3844062340137877
0.0993352085351944,0.4446959495544446,9.792840957641602,0.0003659107314888388,-0.0003899775911122559,0.0015231705037876964,-3.4829835891723633,-4.008796215057373,-6.4818196296691895,0.04567565080609593,-0.01011833658169937,2.3843998411463034
0.10263282805681229,0.4334324300289166,9.796292304992676,6.71103480271995e-05,-0.00014344055671244835,0.0019776453264057636,-3.4796178340911865,-4.008312225341797,-6.484189987182617,0.04570384210551664,-0.010112051250353698,2.3844029086506713
0.09831063449382782,0.43449640274047974,9.79052448272705,0.00040496099973097444,0.0009300363017246128,0.0007371731335297226,-3.47672176361084,-4.007816791534424,-6.486749172210693,0.045741990366917555,-0.010109330881099896,2.3844008689910634
0.0962614193558693,0.43902534246444824,9.794506072998047,0.0005740854539908469,0.00014201470185071254,0.0020310296677052975,-3.4744956493377686,-4.0073323249816895,-6.489612579345703,0.04575389076238875,-0.010095715335822009,2.384400920275271
0.11391116678714752,0.4399363994598401,9.799309730529785,0.0008608299540355802,7.567834109067925e-05,0.0006476141279563308,-3.4717671871185303,-4.006612777709961,-6.493088245391846,0.04574918559282053,-0.01006708040934038,2.3844031160949988
0.1017618179321289,0.45059219002723816,9.797131538391113,0.00042189768282696605,-0.00014822953380644305,0.001329073216766119,-3.469886541366577,-4.006025314331055,-6.495368003845215,0.04575046083664784,-0.010028922323100944,2.3844049075188085
0.10015368461608887,0.4373675882816327,9.7922945022583,-0.000522916903719306,0.0004892892320640387,0.001861042808741331,-3.467196226119995,-4.00595235824585,-6.497735023498535,0.04575312046363546,-0.010005045665283645,2.384410117029478
0.1032627746462822,0.435387581586839,9.795241355895996,0.00023473660985473543,-0.0005164545727893708,0.001499887090176344,-3.4633114337921143,-4.006080150604248,-6.500847339630127,0.04575053362558154,-0.00998767324092428,2.3844131273869333
0.10111773759126663,0.44548338651657227,9.794511795043945,0.001385382260195911,0.0007026240928098562,0.0014579149428755045,-3.460632562637329,-4.006075859069824,-6.5030198097229,0.045751097570994756,-0.00999059858649618,2.384420749340512
0.10490062832832336,0.4320291280746472,9.80002498626709,0.0004211592604406178,0.0004993344191461803,0.0007534085307270287,-3.458132266998291,-4.005992412567139,-6.505030155181885,0.045755966435649074,-0.010006098603874523,2.3844195346196115
0.09849031269550323,0.42949533462524536,9.8034086227417,0.0007054320885799825,0.00034495315048843644,0.0016441650222986937,-3.4553120136260986,-4.006371974945068,-6.5081000328063965,0.045760238675413706,-0.010006568433793541,2.384425070503794
0.09650743007659912,0.4390287995338452,9.792084693908691,0.0001212845672853291,0.0009467884665355088,0.002088115783408284,-3.4534316062927246,-4.006681442260742,-6.510354518890381,0.04574092205006745,-0.010003873748964581,2.3844169855496604
0.1008126437664032,0.44315686821937683,9.801197052001953,-0.0002858868392650038,0.0003327116137370469,0.0015274144243448973,-3.4516804218292236,-4.006890773773193,-6.512446880340576,0.04572985366903232,-0.010001473229402402,2.384413502138503
0.10039007663726807,0.45098340511322144,9.806485176086426,-7.346563506871462e-05,-0.0006624133093282578,0.0019147933926433325,-3.4500486850738525,-4.007017612457275,-6.51448917388916,0.04571586136011331,-0.009998362336053293,2.3844080406086388
0.10563677549362183,0.43550315499305847,9.79340648651123,-0.0005021436372771859,0.000583402579650283,0.0012910248478874564,-3.4483397006988525,-4.007511615753174,-6.518700122833252,0.045694867895771055,-0.00998685316360593,2.38440246756232
0.104496531188488,0.4332634508609784,9.799728393554688,0.00010594856576062739,0.0003710137680172923,0.0021373324561864138,-3.4471707344055176,-4.007755756378174,-6.521454811096191,0.045685962717459665,-0.009973333663634967,2.3844043397816073
0.0999947339296341,0.4342804849147809,9.78683853149414,8.478816016577184e-05,-0.00016935833264142253,0.0016758597921580076,-3.4460880756378174,-4.007903575897217,-6.523937702178955,0.04564928383732398,-0.00993740021162087,2.3843997956734704
0.1051085963845253,0.4363522827625287,9.789338111877441,0.00011819596693385392,-0.0002859563101083038,0.0019383622566238046,-3.4426631927490234,-4.007554054260254,-6.52733039855957,0.04563223907267412,-0.009908529822850341,2.384409506554219
0.10239022970199585,0.4342714548110974,9.795243263244629,0.0008917069644667208,-0.00029286521021276696,0.0013672416098415852,-3.4387857913970947,-4.006914138793945,-6.529989719390869,0.045693588400305844,-0.009933592725081191,2.384407509214804
0.09877991676330566,0.44207274913787964,9.799450874328613,-4.045056994073093e-05,0.0004818895831704142,0.0017070299945771694,-3.435168981552124,-4.006227970123291,-6.532498836517334,0.04572586555806139,-0.009945897742306496,2.3844133170146393
0.10913784801959991,0.438950836658479,9.790985107421875,-0.0003352555213496089,0.0002463952405378225,0.002348328707739711,-3.4307057857513428,-4.005242824554443,-6.535662651062012,0.04579468383862629,-0.009966131915856071,2.3844329924050998
0.10424681007862091,0.4380174577236188,9.794697761535645,-0.00016189360758289695,-2.3865024559199607e-05,0.0016642033588141203,-3.42759370803833,-4.00446081161499,-6.537965774536133,0.0458296313085495,-0.009976241754032509,2.384443150001344
0.09864811599254608,0.43057295680046204,9.797415733337402,0.0004900164203718305,1.5762168914079832e-05,0.001342506380751729,-3.4236295223236084,-4.0046820640563965,-6.54054069519043,0.04589146020439809,-0.010004841446930533,2.384448377163737
0.10916732251644135,0.42786657810211304,9.789517402648926,2.7361034881323576e-05,0.0003868470666930082,0.0021609151735901833,-3.4199178218841553,-4.004791736602783,-6.542795181274414,0.04594481971394316,-0.010059178536887597,2.3844581699897827
0.10932495445013046,0.4466657340526593,9.801338195800781,0.001091664656996727,0.0004915709723718467,0.0014253042172640562,-3.41532039642334,-4.004789352416992,-6.545548439025879,0.0459663734217377,-0.010080481948126654,2.3844716714951057
0.10138602554798126,0.43881604075431946,9.793925285339355,0.0008282026974484324,-0.00011679704766720512,0.0018057316774502397,-3.4117519855499268,-4.005388259887695,-6.547662734985352,0.04599006330601276,-0.010119344110202603,2.38447446667894
0.11039650440216064,0.4359836578369153,9.800179481506348,0.00012186540698166937,0.0009636229369789365,0.0022161947563290596,-3.407341957092285,-4.005978584289551,-6.549717903137207,0.04598561060965516,-0.010143457697681962,2.3844890813631077
0.09572109580039978,0.437434107065202,9.798885345458984,0.00016859172319527715,-0.0003757993690669534,0.0022704419679939747,-3.4042675495147705,-4.006285190582275,-6.55102014541626,0.04598058802707071,-0.010160933233466446,2.3844957340294117
0.09572109580039978,0.437434107065202,9.798885345458984,0.00016859172319527715,-0.0003757993690669534,0.0022704419679939747,-3.401165246963501,-4.006397724151611,-6.552555561065674,0.045972955238009115,-0.010168657604663263,2.384499906856358
0.10972178727388382,0.432514011859895,9.79433536529541,-0.00021660351194441319,0.0012499263975769284,0.0018445999594405291,-3.397846221923828,-4.0062384605407715,-6.5549468994140625,0.04597036405626257,-0.01016836082499521,2.3844903070984302
0.10126473754644394,0.4381091296672833,9.793238639831543,0.0002971841604448855,0.0006142526399344208,0.0018824755679816008,-3.3937389850616455,-4.005893230438232,-6.558090686798096,0.045971852116447866,-0.010157557414817686,2.3844903768224164
0.10730382800102234,0.43269801139831665,9.801863670349121,0.0004271541256457567,-0.00021445844322442987,0.0017928237793967128,-3.390871047973633,-4.005542755126953,-6.560312747955322,0.04598867439573328,-0.01014279441527882,2.3844934333559493
0.10654935240745544,0.43507912755012634,9.80105972290039,0.0004083217354491353,-9.61477635428308e-05,0.0012400656705722213,-3.388071298599243,-4.005538463592529,-6.562327861785889,0.04600470253368767,-0.010121912508852901,2.3845013742435777
0.112690769135952,0.440059155225755,9.786304473876953,0.00028038659365847707,0.0006609689444303515,0.0013319875579327345,-3.38525652885437,-4.006241798400879,-6.564061641693115,0.04600174141118918,-0.010116043725050051,2.38450323296673
0.10860195755958557,0.43996366858482483,9.797389030456543,0.001153519842773676,0.0005507866735570134,0.0010567482095211744,-3.381768226623535,-4.006955623626709,-6.5661492347717285,0.0459907218598038,-0.010111487284867816,2.3845054762403564
0.10607784986495972,0.4378648698329938,9.799840927124023,-0.0009569670655764639,-0.00042183720506727674,0.001612266176380217,-3.379330635070801,-4.007345199584961,-6.567528247833252,0.045969419962837335,-0.010107562839903014,2.3845022952601362
0.1061670184135437,0.44273582100868347,9.788552284240723,-0.0007498887716792524,-0.00012708804570138438,0.0012970976531505585,-3.3766636848449707,-4.008248805999756,-6.569018363952637,0.04591732609350961,-0.010113834306575647,2.384495229802013
0.09613337367773056,0.4440948069095624,9.792733192443848,-0.0004935646429657936,-0.0012123530032113192,0.0021267980337142944,-3.373128890991211,-4.009617328643799,-6.571045398712158,0.04590992414440534,-0.01012044689200476,2.3844954904008144
0.09380529820919037,0.43675538897514465,9.788923263549805,-3.267804277129471e-05,0.0008161779842339457,0.0005653905682265757,-3.3706631660461426,-4.010458946228027,-6.572442531585693,0.04588481519400826,-0.010124098677536658,2.3844819762819514
0.10268378257751465,0.43448373675346497,9.788816452026367,0.0007617003284394741,0.00038853083970025203,0.001724526286125183,-3.3683383464813232,-4.011155605316162,-6.573538303375244,0.04587688701399254,-0.010125521439729866,2.3844740189675777
0.10219553112983704,0.43697455525398377,9.793924331665039,0.0007831554394215345,0.0008551838691346351,0.002291895681992173,-3.365638256072998,-4.011136054992676,-6.575063705444336,0.04586599354935896,-0.010099061231489582,2.3844621957377328
0.10917738080024719,0.43920916318893555,9.802217483520508,-0.0003843228332698345,0.0013484742958098652,0.0016013472341001032,-3.3637619018554688,-4.01101016998291,-6.576138019561768,0.04585607638048446,-0.01005700193649246,2.3844503600864315
0.11066579073667526,0.4374119043350232,9.794112205505371,-0.0007262559956870973,4.357355646789091e-05,0.001385182375088334,-3.3619978427886963,-4.0107927322387695,-6.576955318450928,0.04585303415255446,-0.010038911776077688,2.3844493728198812
0.09890925139188766,0.4311376512050641,9.799522399902344,6.781864794902503e-05,-0.0010014952858909962,0.0018661422654986384,-3.3603358268737793,-4.010493755340576,-6.577672004699707,0.04585188686070728,-0.010007122478246524,2.3844381280480063
0.10123302787542343,0.43779757618904236,9.791752815246582,0.00032361154444515705,-6.062339525669805e-05,0.0006856179097667336,-3.357853412628174,-4.012023448944092,-6.578455448150635,0.04582289483884709,-0.009982740033243273,2.384431752475367
0.1048935279250145,0.42890709638595703,9.798442840576172,7.396226283162832e-05,0.0003865400212816896,0.0019196823704987764,-3.356133460998535,-4.012963771820068,-6.578771114349365,0.04578980759667953,-0.009974501582127185,2.3844346667566376
0.10336890816688538,0.4331425428390515,9.787631034851074,-0.0002293534344062209,0.0010092924349009993,0.0018653164152055977,-3.3545196056365967,-4.013751029968262,-6.579000473022461,0.04577263673457528,-0.009970880025686838,2.3844391130117533
0.10608755052089691,0.42947310209274414,9.794647216796875,0.00031541174394078553,0.0003256752388551833,0.0014095515944063663,-3.3526742458343506,-4.0149335861206055,-6.579318523406982,0.045741763271312456,-0.00996945753165887,2.384429612874459
0.1013990044593811,0.43593186140060547,9.7841157913208,5.113828228786588e-05,-0.00014581915456801634,0.00145431247074157,-3.3515167236328125,-4.015895366668701,-6.579501152038574,0.04572108218824137,-0.009954489285563278,2.384424054190401
0.10948391258716583,0.4388068020343793,9.791414260864258,6.550675607286394e-05,0.0004629794275388123,0.0011530967894941568,-3.3504371643066406,-4.016700267791748,-6.579583168029785,0.045671402423113266,-0.009932633749213349,2.38441088272969
0.11263783276081085,0.43939468264579895,9.797951698303223,0.0010998914949595928,-0.001168520073406398,0.002554024336859584,-3.34910249710083,-4.017552375793457,-6.579676151275635,0.04562938604797318,-0.009912098253721833,2.384401037418052
0.10122057795524597,0.43672072887420776,9.795489311218262,0.0011989292688667774,0.0006818688707426193,0.0016776940319687128,-3.3481671810150146,-4.018040180206299,-6.579808712005615,0.04561723370766343,-0.009904847020978035,2.384407469720744
0.10362067818641663,0.43255975842476013,9.789862632751465,3.156543243676424e-05,-0.0005906800506636498,0.0019246407318860292,-3.3455159664154053,-4.0187225341796875,-6.5794596672058105,0.045592649701303174,-0.00988875438981968,2.384400753532853
0.09823126345872879,0.4440896511077893,9.788268089294434,0.0005189465009607375,-0.0006456169066950678,0.0004917972255498172,-3.3422555923461914,-4.019419193267822,-6.579094409942627,0.045603574239584464,-0.009894649498675554,2.384398042926147
0.11359972506761551,0.44162902235984924,9.79584789276123,0.0006449100328609347,-0.00010356330312788457,0.002435667673125863,-3.339991807937622,-4.019796848297119,-6.578890800476074,0.04561743426266232,-0.009906250765759182,2.38439867760689
0.10642746090888977,0.4406951665878308,9.799579620361328,-0.000646843749564141,-0.00035427033435553296,0.0012304133269935846,-3.3370771408081055,-4.020533561706543,-6.579071521759033,0.04561969017182856,-0.009922028596115805,2.3844013794324503
0.10305079817771912,0.4394151270389569,9.792370796203613,-0.0005853518377989531,0.00038380065234377996,0.0013581742532551289,-3.3343589305877686,-4.021123886108398,-6.579313278198242,0.045634057684070126,-0.009940808717867297,2.3843788339012884
0.10737098753452301,0.43593961000442627,9.790948867797852,-1.8128863302990794e-05,-0.0001678793923929331,0.002209169790148735,-3.331005334854126,-4.021703243255615,-6.57960844039917,0.04563870288603511,-0.009948746200709735,2.384380421306099
0.11044690012931824,0.43803781270980957,9.792196273803711,0.00017988790932577103,0.0003953903215005995,0.0009391775820404291,-3.3282761573791504,-4.022085189819336,-6.579794406890869,0.045651963407910716,-0.00996069440250382,2.384376708644367
0.0957523062825203,0.4331087172031415,9.794500350952148,5.356065230444074e-05,0.0006725978455506267,0.0019064120715484023,-3.3249683380126953,-4.022515773773193,-6.579803943634033,0.04566757136763374,-0.009956066749166848,2.3843799083459074
0.1038433089852333,0.4429905116558087,9.799332618713379,5.184879410080612e-05,0.0003872084780596198,0.0008149581262841821,-3.3209002017974854,-4.022900104522705,-6.579696178436279,0.045671010865281365,-0.009960173472300698,2.384377663868844
0.10299739986658096,0.4391036629676831,9.792701721191406,0.0006939845043234527,0.001311405096203089,0.0013149431906640527,-3.3180770874023438,-4.0230584144592285,-6.579728126525879,0.045681096493412024,-0.009966157890628383,2.3843640299467728
0.0959906056523323,0.4373685121536267,9.800210952758789,0.0003748485178221017,0.0007160631357692183,0.0008525962475687264,-3.3157362937927246,-4.023054122924805,-6.579782009124756,0.045695291382581896,-0.009970768569145323,2.384366693423655
0.10283501446247101,0.4352962374687207,9.800521850585938,0.00010418628517072648,1.7317128367722238e-05,0.0016625586431473494,-3.3141493797302246,-4.022834777832031,-6.579683780670166,0.0456822334653239,-0.009956984993029584,2.3843640074527648
0.10576507449150085,0.44199082255363586,9.793476104736328,0.0007165910210460424,0.00013878021854907285,0.000982128083705902,-3.3122079372406006,-4.022410869598389,-6.579636096954346,0.0456618668125359,-0.009902276982309643,2.3843707604089808
0.10411927849054337,0.4405282735824597,9.795467376708984,-0.0008658323204144835,0.0007759762811474504,0.0014883046969771385,-3.310868978500366,-4.022003650665283,-6.579733371734619,0.045644674624607175,-0.009843149618111323,2.3843750752850332
0.09487735480070114,0.43996289372444275,9.795095443725586,0.00011612199887167662,-0.00011445838026702389,0.001163410721346736,-3.309659481048584,-4.022268295288086,-6.580007076263428,0.045609593224099305,-0.009786509541966595,2.3843833265278485
0.10084323585033417,0.4391385316848767,9.795867919921875,-0.00021486551850102842,-0.000668168533593416,0.001967904157936573,-3.3082332611083984,-4.022912502288818,-6.5804924964904785,0.04558333494583757,-0.009753231546326308,2.384383119547353
0.09469051659107208,0.4346909224987042,9.797476768493652,0.0003263671533204615,0.0015079084550961854,0.0021064351312816143,-3.3072683811187744,-4.023247718811035,-6.580948352813721,0.04552960112528375,-0.009701452262045988,2.3843955202748752
0.09884121268987656,0.4382615983486188,9.786431312561035,0.0005255049327388406,0.0003338232636451723,0.0011613270035013556,-3.3063786029815674,-4.023466110229492,-6.581445217132568,0.045500020678873494,-0.009681865847887888,2.384402825232012
0.11336766183376312,0.43948307633400086,9.789134979248047,0.00021406271844170988,0.00035793287679553054,0.0018706244882196188,-3.302561044692993,-4.024572849273682,-6.581619739532471,0.04545864203016284,-0.00967258455295435,2.3844055827085904
0.1052655577659607,0.43693917989730957,9.788043022155762,0.000519117689691484,-0.00028847029898315657,0.0008155282121151686,-3.2999534606933594,-4.025228500366211,-6.581921577453613,0.04544347961373513,-0.009689596863834095,2.3844141681423707
0.09916793555021286,0.4374911189079297,9.786579132080078,0.0006546240765601397,-0.0006405708845704792,0.0013858405873179436,-3.297536849975586,-4.025750160217285,-6.582318305969238,0.04543801133797539,-0.009708700083256949,2.384410597985772
0.09888350963592529,0.4293378293514264,9.795589447021484,0.00011571991490200162,-3.013468813151095e-05,0.002137931529432535,-3.2952873706817627,-4.026149272918701,-6.582668781280518,0.04542984064074882,-0.009738958667984328,2.384420907207787
0.10811839997768402,0.440888971090318,9.794218063354492,0.0005096506793051958,0.0003759153769351543,0.0010448218090459704,-3.2919836044311523,-4.027198314666748,-6.58349609375,0.045425029059617004,-0.00975703913140456,2.3844122070173213
0.10803672671318054,0.4407158195972455,9.797379493713379,0.0007643596618436277,-0.0008127617184072731,0.0018994451966136694,-3.2897286415100098,-4.027814865112305,-6.583942890167236,0.04542084190906222,-0.009778551081536137,2.3844088755705224
0.09852131456136703,0.4339560866355908,9.786589622497559,0.0009367711609229445,0.000406357867177576,0.0012771564070135355,-3.287640333175659,-4.028304576873779,-6.584475040435791,0.04541655044446772,-0.009789657161134292,2.3843993510166537
0.09637710452079773,0.436958044767381,9.805970191955566,0.0008214777917601168,0.00047188822645694034,0.0013303135056048632,-3.2849719524383545,-4.028891563415527,-6.585018157958984,0.04541120386018926,-0.00980292390663455,2.3844003722373732
0.10154058039188385,0.4413987994194043,9.792441368103027,0.00023675808915868402,-6.7952787503597935e-06,0.0017872798489406705,-3.2830700874328613,-4.029275894165039,-6.5853190422058105,0.045401886043958194,-0.009786345923609493,2.384409302409661
0.0983978733420372,0.4327390491962445,9.793546676635742,-0.00044838947360403836,-0.0011787111870944498,0.0017212684033438566,-3.281317710876465,-4.029540061950684,-6.585660457611084,0.045379436437406884,-0.009765645719980287,2.3843990450117403
0.1097608432173729,0.43785449862480286,9.786428451538086,-0.00011347400140948594,5.9258425608277483e-05,0.001320563955232501,-3.2791876792907715,-4.029724597930908,-6.586156368255615,0.045368873531609635,-0.009752462626700544,2.3843898075492818
0.09897908568382263,0.4332910776138318,9.798754692077637,-0.00020550258341245353,0.00029598514083772914,0.0014211188536137342,-3.277726650238037,-4.029752254486084,-6.586405277252197,0.04535726778031466,-0.009738004703696892,2.3843808973115377
0.0994439497590065,0.4329272508621228,9.79124641418457,0.0005696852458640933,-0.0005283219506964086,0.001061106682755053,-3.2759623527526855,-4.029902935028076,-6.586540699005127,0.04534123893433505,-0.00971489994177419,2.3843804741712336
0.10132526606321335,0.44146236777305725,9.800578117370605,-6.673173629678786e-05,0.0010383756598457696,0.0019413946429267524,-3.2735776901245117,-4.030080318450928,-6.586671829223633,0.04533493829775286,-0.009697177732677765,2.3843705316853265
0.09975899755954742,0.4355684816837323,9.776549339294434,0.0001797788281692192,0.0006971352850086989,0.0019244664581492543,-3.2719571590423584,-4.030096054077148,-6.586455821990967,0.045326563680566145,-0.009680216501262892,2.3843779740020614
0.0942620262503624,0.4486465156078351,9.80385684967041,0.0007786499336361885,-0.0006331952754408119,0.0014048281591385603,-3.2691187858581543,-4.031200885772705,-6.585935115814209,0.0453201007348209,-0.009681473524805756,2.3843767992177374
0.11378328502178192,0.4414854645729077,9.793390274047852,0.0004130371962673962,0.0006705922423861923,0.0013939626514911652,-3.2665092945098877,-4.032136917114258,-6.585542678833008,0.045307449626565625,-0.009693479732847414,2.3843752943361554
0.09626301378011703,0.44567668437957886,9.796236038208008,-0.00026990394690074027,-0.00046794710215181096,0.0014799400232732296,-3.2633445262908936,-4.03315544128418,-6.5850114822387695,0.045293236496407915,-0.009702303260093893,2.3843786651370045
0.09949818253517151,0.4458582997322095,9.788202285766602,-0.0003066158096771687,-0.00042493129149079307,0.0013248138129711151,-3.2609570026397705,-4.033807754516602,-6.584497928619385,0.04528036220957072,-0.00972955302084698,2.384366078627733
0.10744515061378479,0.442707419395448,9.790310859680176,0.0005187763599678874,0.0004238139372318985,0.001650093006901443,-3.258331298828125,-4.0344085693359375,-6.583920955657959,0.045272341039907044,-0.009737631471870616,2.384363648600477
0.11063393950462341,0.4326387345790875,9.792694091796875,-0.0006921321619302034,-0.00010333233512938009,0.0011566849425435066,-3.2551558017730713,-4.035010814666748,-6.583311080932617,0.04526561289373913,-0.009738488939391825,2.3843594391731893
0.1005793958902359,0.4434626400470746,9.804430961608887,0.0002824143448378891,-0.0005549696506932376,0.0015766690485179424,-3.252990484237671,-4.035330295562744,-6.582866668701172,0.04526004876192453,-0.00973438559503407,2.384359912698377
0.09663473814725876,0.4348648190498364,9.792555809020996,-0.0002927840396296233,4.209426697343606e-05,0.0014727984089404345,-3.2503714561462402,-4.036018371582031,-6.582312107086182,0.045263313413434925,-0.009729835878976884,2.384353130188937
0.10021720826625824,0.43547588586807373,9.788408279418945,-0.0007213852368295193,0.0006008355412632229,0.001335647189989686,-3.2456326484680176,-4.037936687469482,-6.581295013427734,0.045256683648962834,-0.009774012924301346,2.384358615871997
0.09089547395706177,0.43797951936721924,9.788484573364258,0.00013605486310552806,6.163911893963831e-05,0.001448728609830141,-3.2423884868621826,-4.039167881011963,-6.580834865570068,0.04525378001797411,-0.00980243619828644,2.384358875567655
0.09594780951738358,0.4367707669734967,9.788082122802734,-0.0002523032308090478,0.000493135361466557,0.0014797579497098923,-3.2393784523010254,-4.040241718292236,-6.580445766448975,0.045249830372840215,-0.009840480242846018,2.384354962015931
0.10735319554805756,0.43529343605041626,9.799999237060547,-3.282740362919867e-05,-0.0005947508616372941,0.002041541039943695,-3.2370262145996094,-4.040545463562012,-6.580126762390137,0.04525285314354743,-0.009861288001469584,2.3843553889981983
0.1032199040055275,0.4323390126228345,9.789117813110352,0.0004311546217650175,-7.735053077340102e-05,0.001957423286512494,-3.2344624996185303,-4.040393829345703,-6.579761028289795,0.04523997548485119,-0.009846899248492,2.384347472071384
0.10564719885587692,0.43720659613609436,9.791984558105469,0.0003957389562856406,-0.00020931591279804696,0.0009007926564663649,-3.2327229976654053,-4.040188789367676,-6.5795183181762695,0.045225452427306,-0.009805411756440759,2.384344320304242
0.10175320506095886,0.4385650455951703,9.785456657409668,0.0007810844108462334,2.147513441741567e-06,0.0008202244061976671,-3.2311275005340576,-4.039908409118652,-6.579342842102051,0.04522469304932533,-0.009787966204994381,2.3843383816313843
0.10028627514839172,0.43492504954338196,9.793179512023926,0.0007342572207562625,-6.519642192870346e-05,0.0027087496127933264,-3.2287094593048096,-4.040977954864502,-6.57797384262085,0.04520242278506268,-0.009742997104864076,2.384345757142922
0.10650395601987839,0.4395210146904004,9.798988342285156,-1.4952558558434248e-05,0.0003401044523343445,0.0009151779813691974,-3.2258124351501465,-4.042160987854004,-6.5759501457214355,0.04516529262949783,-0.009717937310781785,2.3843342188282106
0.10938414931297302,0.44466719031334045,9.799501419067383,0.0001752008101902902,0.00023427885025739678,0.0007214020006358624,-3.2238543033599854,-4.042884349822998,-6.574695110321045,0.04514201910061814,-0.009712462213072629,2.3843249381460683
0.10118424892425537,0.4375584423542035,9.789407730102539,0.00023453310132026672,0.0006655364413745702,0.0009143431670963763,-3.221452236175537,-4.043860912322998,-6.573056221008301,0.045123402705671736,-0.00971110652667314,2.3843138372010024
0.11282327771186829,0.43872761726379517,9.799243927001953,-7.044672383926809e-05,6.79679214954394e-06,0.0014525421429425478,-3.219752311706543,-4.044884204864502,-6.571474075317383,0.045097463709084774,-0.009704508896382023,2.3843049906594667
0.09869047999382019,0.43882068991661194,9.802689552307129,0.0006428818451240659,0.0007163678528741003,0.0010660872794687748,-3.218215227127075,-4.045760154724121,-6.570110321044922,0.045070020024417734,-0.009699032324273762,2.3843009222758504
0.09745301306247711,0.43600192666053894,9.804445266723633,-5.767375114373863e-05,-0.00027911935467272975,0.001586452592164278,-3.216822624206543,-4.046503067016602,-6.568933486938477,0.045036502342006506,-0.009694827563285113,2.3842930288077935
0.10234756767749786,0.43647852540016296,9.795063018798828,0.0007634037174284458,0.0005519403493963184,0.0015127392252907157,-3.214587450027466,-4.04837703704834,-6.56721830368042,0.04498819989493818,-0.009695620081534347,2.3842760866267754
0.10521984100341797,0.4210723340511334,9.7951021194458,-0.0004925581160932779,-0.00014476885553449376,0.0012449377682060003,-3.2126834392547607,-4.050363540649414,-6.565754413604736,0.04496362384646301,-0.009706706911975347,2.3842713492015637
0.11487419903278351,0.4429825544357312,9.801149368286133,-7.872481364756823e-05,0.0009030858054757119,0.0009616840397939085,-3.2109594345092773,-4.05214786529541,-6.564441204071045,0.044910324668401676,-0.009736192219732423,2.3842639666034215
0.10443748533725739,0.43740522861480835,9.793120384216309,0.0006031242664903402,0.0008958243997767569,0.0012098344741389153,-3.208902359008789,-4.0542449951171875,-6.562891006469727,0.044866198308742306,-0.009758169384677275,2.3842538429156193
0.10036852955818176,0.4316215515136731,9.792423248291016,0.0011603748425841331,0.0001506273401901128,0.0016720429994165897,-3.2075188159942627,-4.055629253387451,-6.5618896484375,0.04483143811887403,-0.009772543384856393,2.384254422481553
0.10685928165912628,0.4395890831947339,9.794260025024414,0.00011932190682273358,-0.00048538856208324405,0.0020128798205405474,-3.2065980434417725,-4.0566534996032715,-6.560403823852539,0.044815168109751474,-0.009774677003763528,2.384247701940248
0.10035891085863113,0.4403549432754529,9.794770240783691,-0.0005257063312456012,0.0007264665910042825,0.0021778708323836327,-3.2055559158325195,-4.0578107833862305,-6.558595657348633,0.04477238932099746,-0.009748794148162132,2.384258469241401
0.11316317319869995,0.440823018550874,9.792862892150879,0.000860269065015018,-0.00028661824762821176,0.0019576125778257847,-3.2048957347869873,-4.058531284332275,-6.5573577880859375,0.04475596166039682,-0.009733211896925017,2.384266491758502
0.09913621097803116,0.4384325146675122,9.791560173034668,-4.570992314256728e-05,-0.00032386288512498124,0.0014712169067934155,-3.204334259033203,-4.059372901916504,-6.55580997467041,0.04472728234389899,-0.009689276273211436,2.3842594519091733
0.10048516094684601,0.4347735941410077,9.79386043548584,-0.00022576036280952394,-0.0006061084568500516,0.002495101885870099,-3.2038838863372803,-4.060086250305176,-6.554436683654785,0.044687838835568726,-0.009634722239108167,2.384263494746711
0.1036246195435524,0.43381235003471497,9.7968168258667,-0.00026994789368472993,0.0007243425352498891,0.0014917986700311303,-3.2034337520599365,-4.060856819152832,-6.552672863006592,0.04467661034628598,-0.009606754118127277,2.3842674175794247
0.10371306538581848,0.4439648985862744,9.788277626037598,-0.0008650466334074736,0.00027660618070513037,0.0021080374717712402,-3.202580451965332,-4.061361312866211,-6.551680088043213,0.044656976997045815,-0.00956225425062562,2.384274477671869
0.09605357050895691,0.43966987729072693,9.799874305725098,4.203553544357419e-06,0.000107578467577696,0.0012392060598358512,-3.2006723880767822,-4.061850547790527,-6.551120758056641,0.04465184057575791,-0.009528908519326602,2.384286026793505
0.10134220123291016,0.4340392053127301,9.796560287475586,-0.0006859260611236095,0.0005099161644466222,0.0011492306366562843,-3.198435068130493,-4.0623459815979,-6.550602436065674,0.04465457815835782,-0.00951239498384019,2.3842932194392152
0.09813255071640015,0.44407287240028503,9.802978515625,1.0360556188970804e-05,0.000655818672385067,0.0013671049382537603,-3.1969568729400635,-4.062611103057861,-6.550304412841797,0.04466317124771372,-0.009503841251299034,2.384288159410246
0.09861099720001221,0.4312695860862744,9.79754638671875,0.0004187574959360063,-0.0002943985164165495,0.0014314658474177122,-3.1947731971740723,-4.063124656677246,-6.549945831298828,0.04468572033744642,-0.009508951313416747,2.3842821929708546
0.09645727276802063,0.43945303559303406,9.787969589233398,0.0005863138940185308,-0.0008199902949854729,0.001459642662666738,-3.190006732940674,-4.064502716064453,-6.54931116104126,0.044706161238157745,-0.009536380938122627,2.384278832967704
0.10518839955329895,0.4372909963130963,9.795083999633789,-0.00025516250752843916,5.266396328806895e-05,0.0014355522580444813,-3.1867759227752686,-4.065377235412598,-6.548918724060059,0.04474801463343519,-0.009592780763852218,2.3842660846907044
0.10515125095844269,0.4501579999923718,9.797496795654297,0.00024093968386296183,0.000314855598844588,0.0018653642619028687,-3.183809518814087,-4.066129684448242,-6.548550605773926,0.04478061029229212,-0.009654627659901112,2.384264527761815
0.11359745264053345,0.4423487186431897,9.806629180908203,-0.0007141666719689965,0.00044989347225055115,0.0011456696083769202,-3.181730270385742,-4.06612491607666,-6.548684597015381,0.04479098225334057,-0.009684277060427739,2.384252464943148
0.09776560962200165,0.43432047963142517,9.788249969482422,-0.0006183608202263713,-0.00042599905282258966,0.0017937269294634461,-3.179680585861206,-4.065603256225586,-6.549415111541748,0.044800770565599626,-0.009663157292026762,2.3842403396846623
0.10003605484962463,0.4251387715339673,9.796367645263672,-0.00017955750809051096,-0.0004237509565427898,0.001180795137770474,-3.1783313751220703,-4.065160751342773,-6.549779415130615,0.04481365947986373,-0.009641844970425011,2.3842442081652675
0.09571623802185059,0.4418364167213452,9.792113304138184,-0.00012681781663559377,0.00019708287436515115,0.0017920243553817272,-3.1771326065063477,-4.0646748542785645,-6.5500712394714355,0.04480880846480275,-0.009593693144107875,2.384240799311435
0.10571154206991196,0.43453967571258667,9.79011344909668,1.435689046047628e-05,0.0004729953943751755,0.0020262282341718674,-3.171483278274536,-4.065409183502197,-6.550645351409912,0.04482310418316168,-0.00959638736474338,2.3842431883138877
0.0990254133939743,0.4445635974407208,9.793356895446777,-5.318396142683923e-05,-0.0005029250169172882,0.001279891817830503,-3.167651891708374,-4.06583309173584,-6.5510663986206055,0.0448511230452599,-0.00962668470295457,2.3842486060353747
0.10265214741230011,0.4326080381870282,9.8096923828125,0.0013347285566851497,0.00038965221028774993,0.001121264649555087,-3.1641271114349365,-4.066162586212158,-6.551487445831299,0.044871529272988354,-0.009649630688980835,2.3842514247525717
0.10336395353078842,0.430694639682771,9.799803733825684,-0.0003736123617272824,-0.0004301887238398192,0.001710529555566609,-3.160875082015991,-4.066407203674316,-6.551363945007324,0.04490950353880842,-0.009682753531396433,2.384239461187601
0.09873756766319275,0.43675348162651184,9.790881156921387,-0.00016076298197731376,0.0005536440294235947,0.001547931577078998,-3.1535048484802246,-4.067159652709961,-6.552555084228516,0.044969892456557456,-0.009751368564434754,2.384238437041312
0.09997241944074631,0.43823453783989075,9.80004596710205,-9.704791591502726e-05,0.0008593633538112047,0.001462755142711103,-3.148456573486328,-4.067599296569824,-6.553300857543945,0.0449936530188591,-0.009780792549107329,2.384228280869485
0.10798932611942291,0.4432720541954053,9.795798301696777,-0.00024823989951983094,0.00022803724277764578,0.0014622095040977001,-3.14377760887146,-4.067943096160889,-6.554211616516113,0.04505482146512154,-0.009864945006946403,2.384221311760642
0.09839136898517609,0.44660311937332275,9.792476654052734,-0.00039196404395624995,-3.6174082197248834e-05,0.0008251474937424064,-3.137192726135254,-4.068012714385986,-6.556490898132324,0.045091032791783774,-0.009924134159380999,2.384211029678421
0.09984847903251648,0.4384327232837689,9.799885749816895,0.0001690290227998048,-0.00075071700848639,0.00102624308783561,-3.132047653198242,-4.067792892456055,-6.558755874633789,0.04515612014039489,-0.009990952635870479,2.3841935905975484
0.10056491196155548,0.4409678578376782,9.801546096801758,-0.00031655258499085903,-7.789907976984957e-05,0.0016348124481737614,-3.1272740364074707,-4.067515850067139,-6.560763359069824,0.04519418503950349,-0.010013575554019563,2.384179110891187
0.1018303856253624,0.4295040071010602,9.797152519226074,-0.0009371156338602304,-0.0005799588980153202,0.0012813203502446413,-3.121427297592163,-4.0670623779296875,-6.562959671020508,0.045250709497793605,-0.01003747817037308,2.3841644756511835
0.10872934758663177,0.4369718432426465,9.798593521118164,-0.0004157405928708613,-0.00015454937238246183,0.0015966903883963823,-3.1173949241638184,-4.066664695739746,-6.564610004425049,0.04526925688363674,-0.010051579174979453,2.3841711087344923
0.09649520367383957,0.4426890015602124,9.799456596374512,-0.0003119696048088372,-0.00032699946314096424,0.0020530917681753635,-3.111544370651245,-4.065073490142822,-6.567737579345703,0.04531711073024705,-0.01006417073087158,2.3841690588330833
0.09748905897140503,0.4398326575756085,9.79474925994873,0.0001589160383446142,-0.0007066583493724463,0.0013593942858278751,-3.1061007976531982,-4.0635085105896,-6.570689678192139,0.04539955860037771,-0.010057702600617986,2.3841737380754893
0.10582441836595535,0.4305637776851666,9.782998085021973,-0.0004036012105643749,0.00044334272388368867,0.0018318651709705591,-3.0994091033935547,-4.0614542961120605,-6.574241638183594,0.04543692061896014,-0.01005606473076264,2.3841721645264653
0.10190965980291367,0.43943396210670593,9.788277626037598,-0.000615077733527869,0.00023964827414602052,0.0009048136416822672,-3.0931777954101562,-4.060328006744385,-6.578474044799805,0.0455130772181299,-0.010051872167692395,2.3841754021991703
0.10903482139110565,0.43668520450592163,9.79071044921875,0.0002768424164969474,4.336074925959128e-05,0.0014173586387187243,-3.0855231285095215,-4.058794021606445,-6.583842754364014,0.04559546354868243,-0.010056605723863889,2.3841566562662666
0.10382220149040222,0.44529232382774475,9.800453186035156,0.0004220308910589665,0.0002042875858023765,0.0017306457739323378,-3.0802199840545654,-4.057624816894531,-6.587479114532471,0.04563451754581697,-0.01007075409515109,2.3841572548903915
0.1041862890124321,0.4308428168296826,9.798079490661621,0.0006369537441059947,-0.0005889973836019634,0.0011058227391913533,-3.074578285217285,-4.056455135345459,-6.591537952423096,0.04568704619429037,-0.01008639359663412,2.3841435628915075
0.10598896443843842,0.4457625448703778,9.799887657165527,0.0007580186356790364,-0.0005710240220651029,0.0010877226013690233,-3.0680034160614014,-4.05529260635376,-6.5966362953186035,0.04574464523995165,-0.010102466641885029,2.384132603471856
0.11150196194648743,0.44337916374206665,9.801803588867188,-0.000470114522613585,-0.0003266761777922509,0.0016525369137525558,-3.0599019527435303,-4.053712844848633,-6.602906227111816,0.045784557347481575,-0.010125434596608394,2.384129445932339
0.10350675880908966,0.4440348744392407,9.800081253051758,-6.978199235163629e-05,0.0010156393982470038,0.0014493019552901385,-3.0542681217193604,-4.052510738372803,-6.607229709625244,0.04583687632810056,-0.01015196265414162,2.3841240938156587
0.09775330126285553,0.4320754706859601,9.802313804626465,0.0004067221307195723,0.0015293253818526866,0.001217443263158202,-3.0489702224731445,-4.050750255584717,-6.611370086669922,0.04588667732838315,-0.01017888493798311,2.3841206823500305
0.10328651964664459,0.44474619626999023,9.793742179870605,0.00016757311823312193,0.0002977850381284955,0.0020382993388921022,-3.0439932346343994,-4.04796028137207,-6.615943908691406,0.045909275631629026,-0.010160118856087834,2.3841136894822736
0.1044282615184784,0.4342235922813428,9.7946138381958,-9.963847696781158e-05,0.0010946181137114765,0.001058655325323343,-3.0378363132476807,-4.044366836547852,-6.6215291023254395,0.04596937255103772,-0.010122989425642088,2.384113980804974
0.10819429904222488,0.43762975931167725,9.796253204345703,0.0004781842580996454,-0.00014549435582011914,0.0020850040018558502,-3.033546209335327,-4.041754722595215,-6.625412464141846,0.046018846056272954,-0.010077731120880803,2.3841080117040265
0.10797269642353058,0.4412444531917584,9.794258117675781,-0.0003331875486765057,0.00032977701630443356,0.0016390469390898943,-3.0285415649414062,-4.040929794311523,-6.63126277923584,0.04603139625653412,-0.010047421452003654,2.3841201200935562
0.09941159933805466,0.4318773150444043,9.792945861816406,0.0004487995756790042,0.00033076154068112395,0.0018312345491722226,-3.0251305103302,-4.040846824645996,-6.635541915893555,0.04600464765820773,-0.010036726683698283,2.384119342806
0.095756396651268,0.45257413387298706,9.781024932861328,0.0007772751851007342,-0.00018571584951132517,0.0014794112648814917,-3.0219242572784424,-4.040667533874512,-6.6396002769470215,0.0459649515433956,-0.010021684641522078,2.384115596548011
0.10111463069915771,0.4364469051361096,9.796491622924805,-0.00016895533190108836,0.00037715531652793294,0.0004354104166850447,-3.018904209136963,-4.040402889251709,-6.643695831298828,0.04593414553493376,-0.010020141790522803,2.3841120537536065
0.10389264672994614,0.4364095926284802,9.78078556060791,0.00043655827175825834,0.0010749599896371367,0.0021841516718268394,-3.015136480331421,-4.040180206298828,-6.650151252746582,0.045859350933876664,-0.010008321287250448,2.3841147984922597
0.10297051817178726,0.4468510150909436,9.78197956085205,-0.00010973343160003424,0.00011795107275247598,0.001958634704351425,-3.01251220703125,-4.03991174697876,-6.654621124267578,0.04579818786259098,-0.009988183365475042,2.3841254833801164
0.1012900248169899,0.445411801338197,9.789363861083984,-0.00012099265586584806,0.0002774392487481238,0.0012510318774729967,-3.0100388526916504,-4.039563179016113,-6.658572673797607,0.045772814530635725,-0.009987076152814129,2.384129293900715
0.10426491498947144,0.44592815637588623,9.793163299560547,0.0006598621839657426,-0.0005268499953672289,0.0009547969093546272,-3.0077004432678223,-4.039140224456787,-6.662342071533203,0.04573766204410675,-0.009973635424641287,2.384137515503442
0.10141211748123169,0.43246018886566284,9.79384994506836,0.0003719930537045002,7.646379526704566e-05,0.0012849795166403055,-3.003979444503784,-4.038372993469238,-6.666632652282715,0.04572340441125317,-0.009961837749178509,2.384133157761304
0.10237175226211548,0.4366869628429425,9.78590202331543,-0.0008527925238013268,-0.0012326053110882638,0.0017348037799820306,-3.0013787746429443,-4.0377197265625,-6.6695146560668945,0.04571960349297626,-0.009947393438280883,2.3841377166521207
0.09233810752630234,0.4351997971534741,9.794347763061523,-0.0001917896734084934,-0.0002366345142945645,0.0017891647294163704,-2.998919725418091,-4.0370025634765625,-6.6722092628479,0.04571549351697135,-0.009941205140116099,2.384140179182181
0.1091446727514267,0.44317546486854675,9.789956092834473,0.0005273132119327784,-0.00019699579570442422,0.0012403653236106038,-2.9952259063720703,-4.036311149597168,-6.675673007965088,0.045725813394441636,-0.00991884195358903,2.3841431262265864
0.09962844848632812,0.4273539185523999,9.7848482131958,9.066396160051227e-06,6.896641571074736e-05,0.0009694775799289346,-2.9921984672546387,-4.035960674285889,-6.678241729736328,0.04572930349178661,-0.00991844969166765,2.3841458431895197
0.10281375050544739,0.43527162075042847,9.790060043334961,-6.408942863345146e-05,-0.00032018648926168675,0.0005688978126272559,-2.9893441200256348,-4.035523891448975,-6.68068790435791,0.0457380293152157,-0.009916781278364921,2.384128479908164
0.11415665596723557,0.44265621900558594,9.789051055908203,0.0003531860129442066,0.00018621294293552664,0.002135872608050704,-2.9857757091522217,-4.034820079803467,-6.683605194091797,0.04574607678221914,-0.009918338308783279,2.3841249138004845
0.10050655901432037,0.4487448036670697,9.785888671875,-0.0003788750327657908,-0.00013342674355953913,0.0015057374257594347,-2.983255386352539,-4.034212112426758,-6.685701847076416,0.04574015985115969,-0.009919447678783274,2.384114413791485
0.0964440330862999,0.4399687945842755,9.792614936828613,7.262066355906427e-05,7.339008152484911e-05,0.0014700356405228376,-2.9814867973327637,-4.034001350402832,-6.6876115798950195,0.04574373248684845,-0.009910280578334292,2.3841065180572403
0.10613542050123215,0.4346357583999646,9.79043197631836,-0.00018833551439456642,-0.0008095776429399846,0.0014274335699155927,-2.9798057079315186,-4.033692359924316,-6.68944787979126,0.04571453067502738,-0.0098870562688298,2.384090968895335
0.10473635792732239,0.44438576698303345,9.797152519226074,0.0005694740684702992,-0.0002076434902846811,0.0017238829750567675,-2.9776856899261475,-4.033143520355225,-6.691734790802002,0.045684645598149255,-0.009860095784561542,2.3840940105172335
0.09901048243045807,0.43697696924209717,9.786457061767578,-0.00036749322316609323,-0.00025439844466745837,0.001191018964163959,-2.9755470752716064,-4.034374237060547,-6.693239688873291,0.045665631772687044,-0.0098574511554198,2.3840854873874284
0.10883596539497375,0.43218627572059753,9.783716201782227,-0.00034782729926519096,0.0005350993596948684,0.0011201599845662713,-2.9735312461853027,-4.035411834716797,-6.694775104522705,0.04560268727261421,-0.00987359675463917,2.3840852318578634
0.10303817689418793,0.4374639391899121,9.795165061950684,0.0003305620630271733,0.00045865384163334977,0.0010875635780394077,-2.97101092338562,-4.036531925201416,-6.696666717529297,0.04556895761783098,-0.009876268062125888,2.3840820460610157
0.10772506892681122,0.44756954908371094,9.784319877624512,0.00046591967111453414,0.0016250802436843517,0.0020197539124637842,-2.969496011734009,-4.0368781089782715,-6.698099136352539,0.04552416506708149,-0.00988624600903464,2.3840723200559593
0.10880976915359497,0.43234387040138367,9.7937593460083,-9.611481800675392e-05,-0.0001829423708841202,0.0022366472985595465,-2.968576669692993,-4.036479949951172,-6.699604034423828,0.045473524440974494,-0.009859160815776893,2.3840710770380866
0.09796074032783508,0.44470891356468323,9.787283897399902,0.0005339448107406497,-0.0018835644004866479,0.001047568744979799,-2.967418909072876,-4.035826683044434,-6.701373100280762,0.04545890038492065,-0.009840098953342945,2.3840678637805928
0.09124100208282471,0.43615132570266846,9.78436279296875,-0.0005304480437189341,0.0007898590411059561,0.0019287719624117017,-2.966592788696289,-4.035248279571533,-6.70261812210083,0.04543013490000267,-0.009784067822699865,2.3840576979926427
0.09439108520746231,0.4401874840259564,9.783543586730957,-0.0005101587157696486,0.00022783735767006888,0.0012059623841196299,-2.965700387954712,-4.035036087036133,-6.703289031982422,0.04541299191327991,-0.009738085315617253,2.384045871285654
0.10286357998847961,0.4391596317291272,9.792462348937988,0.00020611345826182514,0.0004180519026704135,0.0020573369693011045,-2.9643442630767822,-4.035717487335205,-6.703396797180176,0.04536214314675869,-0.009690832311569916,2.3840341033563393
0.1033286601305008,0.44154012203216675,9.797760963439941,0.0003083155315835029,0.00044870766578242204,0.0018283030949532986,-2.96339750289917,-4.036066055297852,-6.703465461730957,0.045339292463408114,-0.009688307065358696,2.3840243012335587
0.10293995589017868,0.42541307210922363,9.794746398925781,0.00046639604261144996,0.0004415009170770648,0.002001057844609022,-2.9624974727630615,-4.036288261413574,-6.703352451324463,0.045294756683634266,-0.00966288383415993,2.384004876071643
0.09722688794136047,0.44020295143127564,9.788667678833008,0.0004681289428845048,-8.919986430555564e-05,0.0014589374186471105,-2.962035894393921,-4.0379509925842285,-6.702079772949219,0.04527891198705786,-0.009646788461566224,2.3840079282233195
0.09896698594093323,0.43876519799232605,9.789911270141602,0.0011396000627428293,0.00036176352296024577,0.0013309069909155369,-2.9617257118225098,-4.040839195251465,-6.699849605560303,0.04518377443452391,-0.00965059999583659,2.3839857877688853
0.0994608998298645,0.44127249717712524,9.786657333374023,0.0007257045363076031,0.0005018130759708586,0.0019005157519131899,-2.96151065826416,-4.042736530303955,-6.6978254318237305,0.0450903047359499,-0.009653894273339772,2.3839892661002033
0.10269013047218323,0.4363652765750897,9.78968620300293,0.00013742868031840771,0.00020011281594634075,0.0015224006492644548,-2.9613046646118164,-4.044426441192627,-6.696069240570068,0.04504723431384455,-0.009661782957869479,2.3839878571077415
0.10842485725879669,0.4331556260585797,9.795000076293945,0.0006971315597184002,0.000615606608334929,0.0014312255661934614,-2.9619596004486084,-4.045825481414795,-6.693058490753174,0.04495553157060153,-0.009662473907302422,2.38398579701235
0.10554420948028564,0.44269782304763916,9.785959243774414,-0.0006782410200685263,0.00041613966459408424,0.0016983363311737776,-2.9633400440216064,-4.047361850738525,-6.688553810119629,0.044848205339017184,-0.009603669138322004,2.383969395602383
0.10653164982795715,0.4332707524299634,9.792115211486816,-0.00038841358036734164,5.5193318985402753e-05,0.001409444259479642,-2.9643173217773438,-4.048329830169678,-6.685529708862305,0.04474745816323596,-0.009556972408825287,2.383959978367131
0.10015366971492767,0.43124160170555237,9.794230461120605,0.00019806362979579717,0.0002540518762543799,0.0014401762746274471,-2.9657273292541504,-4.050365447998047,-6.680883884429932,0.04470897179427924,-0.009531506847567843,2.383952822836225
0.10657192021608353,0.4424490034580243,9.784723281860352,0.00019775623513851315,-7.395853754132966e-05,0.0016360357403755188,-2.9671361446380615,-4.053786754608154,-6.675656318664551,0.044614581068545864,-0.009494666709012474,2.383945089449282
0.09743400663137436,0.4392690360546124,9.782268524169922,-3.724746056832373e-05,-0.0005051989573985336,0.0015054517425596714,-2.968496084213257,-4.056910037994385,-6.670843601226807,0.04452383058016388,-0.009492771876787019,2.3839447564119984
0.09715501219034195,0.44309097528457764,9.790135383605957,-0.0009553745621815324,-0.0009652337757870553,0.001997204264625907,-2.969801187515259,-4.05976676940918,-6.666379451751709,0.0444219240851958,-0.009488267361916145,2.3839460347313888
0.1037457063794136,0.444698750972749,9.78995132446289,-5.20025787409395e-05,-0.0001342942705377935,0.0009979474125429988,-2.9725382328033447,-4.062613487243652,-6.659500598907471,0.04429876525125892,-0.009486745867603652,2.3839483853302834
0.10790891200304031,0.4388135075569165,9.79677963256836,0.00046260617091320455,0.00012680527288466724,0.0026558288373053074,-2.97527813911438,-4.064095497131348,-6.653632164001465,0.04425422116377051,-0.009459909356031011,2.3839432792578856
0.0973803699016571,0.43974032998085144,9.795714378356934,-0.0006784134893678129,-0.00010313896927982547,0.0017923322739079595,-2.977900743484497,-4.065423488616943,-6.648253440856934,0.044139810413091736,-0.009376446151393259,2.3839573705910597
0.10406529903411865,0.43970182538032654,9.794161796569824,-0.00035712128737941384,-0.000173717620782554,0.0013498864136636257,-2.9804153442382812,-4.066606044769287,-6.643369197845459,0.04406415937366113,-0.009326847236587025,2.3839493385446544
0.10453231632709503,0.432123124599458,9.795256614685059,-0.0003827400505542755,-0.0001576703507453202,0.0008154535898938775,-2.983607530593872,-4.067971706390381,-6.637320518493652,0.04400067391212385,-0.009261468886611272,2.3839511207867083
0.10636536031961441,0.4362236559391034,9.795226097106934,-0.00011377387272659689,-2.6461668312549364e-05,0.0018511515809223056,-2.9833874702453613,-4.070266246795654,-6.63184928894043,0.04397727000824373,-0.009254127208881312,2.383953043391083
0.11352543532848358,0.44091138243675354,9.802247047424316,0.00031599204521626234,0.0009327374864369632,0.0011867485009133814,-2.9832425117492676,-4.073004722595215,-6.625372409820557,0.04395805844293691,-0.0092742610075525,2.383959097098459
0.10794033110141754,0.4387982785701764,9.7982816696167,0.0006439390126615763,0.0006211830768734218,0.0006936698919162153,-2.9832191467285156,-4.074844837188721,-6.620946407318115,0.04394868638426638,-0.009291124658365393,2.38395971847827
0.10211524367332458,0.440080523490907,9.797102928161621,0.000542415538802743,0.000147887971252203,-4.314235411584379e-05,-2.982499599456787,-4.076828956604004,-6.6161088943481445,0.0439469028446471,-0.009327347659819563,2.383941986988924
0.10791964828968048,0.44122239947319153,9.79670524597168,8.020063978619874e-05,-0.00016941106878221016,0.001487892004661262,-2.9819068908691406,-4.078640460968018,-6.6117143630981445,0.0439333517205742,-0.009387948588650542,2.383942299636768
0.10549372434616089,0.4447675645351422,9.803834915161133,0.00027925867470912635,-8.093356154859055e-05,0.0009228463750332594,-2.981292724609375,-4.080812931060791,-6.606473445892334,0.043926141409542804,-0.00941139852849921,2.383944356129078
0.10394598543643951,0.44333484768867615,9.803318977355957,0.0004940417711623013,-0.000660825753584504,0.001080798450857401,-2.981023073196411,-4.081950664520264,-6.60266637802124,0.04391670620006874,-0.009456955562509145,2.3839553669032294
0.0974072515964508,0.4435604214668286,9.796424865722656,0.00014373348676599562,0.0003858403069898488,0.0013881465420126915,-2.9810025691986084,-4.082352638244629,-6.598604202270508,0.04390959082847212,-0.009448600980447591,2.383953375372189
0.10919196903705597,0.43679004907608154,9.796656608581543,0.00024598304298706353,-0.00044241035357117637,0.0015411864733323455,-2.9811136722564697,-4.082783222198486,-6.593664169311523,0.04391380833412792,-0.009435542299434429,2.3839564769414126
0.09304836392402649,0.44250309467315796,9.798809051513672,6.071571260690689e-05,0.0009116000728681687,0.0023012817837297916,-2.9812886714935303,-4.083033084869385,-6.59018611907959,0.043916337890862155,-0.009414025796222227,2.3839693364856083
0.10681729763746262,0.44009897112846497,9.801968574523926,0.0008056809892877936,0.0007011149427853527,0.0016963401576504111,-2.9807188510894775,-4.084184646606445,-6.586639404296875,0.04391950837395117,-0.009376086068188556,2.383980279790511
0.10763660818338394,0.43803274631500366,9.805314064025879,0.0005281156627461314,-0.00030661397613584984,0.0009923398029059172,-2.978093385696411,-4.087990760803223,-6.581558704376221,0.04390951737494507,-0.009395579915984876,2.3839885052454735
0.10179338604211807,0.44160798192024353,9.797687530517578,-0.0005960433045402169,-0.00014714687131345259,0.0012130893301218748,-2.97637939453125,-4.090591907501221,-6.577915191650391,0.04387682305511356,-0.009460516207440827,2.3839888390602386
0.09603102505207062,0.430172383785249,9.800840377807617,-6.067677168175578e-05,0.0009587052627466621,0.0016164942644536493,-2.974851131439209,-4.093003273010254,-6.574662208557129,0.043846705152602,-0.009534529472348232,2.3839953853753992
0.10056747496128082,0.44449350237846497,9.80414867401123,0.0004414411378093064,0.00013672094792127623,0.0011384859681129456,-2.974597215652466,-4.095224857330322,-6.571828842163086,0.04382952316173202,-0.00956483451730248,2.383997754219787
0.10414357483386993,0.44236871600151184,9.791118621826172,0.0004821234615519643,0.0007718788110651078,0.0017048981972038746,-2.9751288890838623,-4.097927570343018,-6.568648815155029,0.04376310613027753,-0.00958068931816524,2.3840116342403914
0.11502495408058167,0.43611261248588684,9.801981925964355,0.0002194302942370996,6.381690036505477e-05,0.0013256259262561798,-2.975611448287964,-4.099785327911377,-6.56657075881958,0.043700614465533846,-0.009591878998749083,2.3840074441102246
0.09558144956827164,0.4410163164138806,9.79920482635498,-0.0003697332867886871,0.0002106734318658711,0.0012132014380767941,-2.976158380508423,-4.101511001586914,-6.564574718475342,0.043633291601107876,-0.009571293302823313,2.3840066933038906
0.1074775904417038,0.440758675336839,9.799203872680664,-7.768039358779788e-05,0.0005297468160279096,0.0009723390685394405,-2.974029779434204,-4.1018500328063965,-6.561977863311768,0.04362956288034833,-0.009565844999952857,2.3840007744920486
0.11020974069833755,0.4347473978996289,9.786849975585938,-0.0005178957944735885,-9.974115528166271e-05,0.0018445256864652038,-2.9726860523223877,-4.102070331573486,-6.55999755859375,0.04364148869591016,-0.009538457384928105,2.3839997704576508
0.0940660834312439,0.43816885352134827,9.796045303344727,-0.0007963201496750116,-0.0004055998288094996,0.001169473514892161,-2.971527338027954,-4.102259635925293,-6.5580244064331055,0.04365567562568423,-0.009523700709996995,2.3840068823127365
0.09935878217220306,0.4401948451995862,9.800077438354492,0.00022940135386306792,-8.572207298129781e-05,0.0013698337133973837,-2.970533609390259,-4.1024169921875,-6.556258201599121,0.04368702000014532,-0.009512815484504474,2.383995232316708
0.10182785242795944,0.44112059473991516,9.79503059387207,0.00011557931429706514,-1.5912810340521863e-06,0.0015157121233642101,-2.9657793045043945,-4.099069118499756,-6.55439567565918,0.04379699201399628,-0.009488200972733557,2.383988104109684
0.09397729486227036,0.4425308108329785,9.804588317871094,-0.0010447126114740968,0.0006450933287851514,0.0009724101983010768,-2.9626035690307617,-4.096722602844238,-6.553171634674072,0.04384847162312369,-0.009479729504782992,2.3839799035473868
0.10231408476829529,0.4330337643623364,9.789928436279297,0.000387565087294206,0.00041036319453269265,0.0019414303824305534,-2.959724187850952,-4.0945000648498535,-6.552087306976318,0.04400712206824806,-0.009463967414705237,2.3839756575453546
0.10982437431812286,0.44447299838066223,9.796760559082031,0.0005264868959784508,0.00046227400889620207,0.0018253627931699157,-2.955885410308838,-4.092259883880615,-6.551433563232422,0.044126807816591056,-0.009444608625151809,2.3839498136719706
0.09945303946733475,0.4420703649520886,9.80605697631836,0.0002919408434536308,-5.442567635327564e-05,0.0011002682149410248,-2.953033924102783,-4.091065883636475,-6.551614284515381,0.04422050429186993,-0.00944033042503616,2.383943748107877
0.09847588837146759,0.44080403447151306,9.800331115722656,-2.5512941647320986e-05,-7.406226359307536e-06,0.0018714616307988763,-2.9504597187042236,-4.089919567108154,-6.551839828491211,0.04424908945219098,-0.009437390138726376,2.383927454941153
0.09849948436021805,0.4441070556640637,9.794336318969727,-0.00011760290362872183,0.0005291525740176441,0.0017910418100655079,-2.9474174976348877,-4.088461875915527,-6.5520243644714355,0.04429798812314085,-0.009442379638988037,2.3839244955226455
0.10460957139730453,0.4346754252910626,9.797847747802734,-0.0006679168436676264,0.0004161150427535177,0.0004961843369528651,-2.9454004764556885,-4.087421417236328,-6.552150249481201,0.044310322488938916,-0.009439218912384579,2.3839251401776442
0.09960714727640152,0.43447846174240234,9.80067253112793,-0.00013030922855250537,-0.00038584508001804336,0.0015235655009746552,-2.9425606727600098,-4.0866618156433105,-6.552762985229492,0.04431620583982035,-0.009447356917567993,2.383912703492558
0.10770165175199509,0.428321033716203,9.793835639953613,0.0007940927753224969,-0.0007613415364176033,0.0015656654722988605,-2.9395008087158203,-4.086040496826172,-6.55350923538208,0.04432696069075737,-0.009480162364413123,2.3839064434661763
0.09538168460130692,0.4319075942039502,9.79769229888916,0.00013449310790747404,0.00031468074303120396,0.0017952510388568044,-2.9358584880828857,-4.08523416519165,-6.554251194000244,0.044331030085059016,-0.009498535438392923,2.383895526873162
0.10045479983091354,0.43568345904350403,9.793985366821289,4.31830994784832e-05,-0.00011766201350837932,0.0011591275688260794,-2.9316797256469727,-4.083893299102783,-6.555482864379883,0.04434774070415479,-0.009533405657305238,2.383895882388627
0.10395323485136032,0.43155437707901123,9.795788764953613,0.000133346242364496,0.00042135280091315524,0.0012052464298903942,-2.927865982055664,-4.082613468170166,-6.556666851043701,0.04439293635982439,-0.009563126940682664,2.38387909087721
0.10647870600223541,0.44635799527168396,9.796144485473633,-0.00034732758649624884,-0.0004323496250435708,0.001767603913322091,-2.9232943058013916,-4.080993175506592,-6.557419776916504,0.04441186136476451,-0.009573901768217282,2.383878887053457
0.10690964013338089,0.4489778578281415,9.792736053466797,0.0002454772766213864,-0.0001982630928978322,0.001484722481109202,-2.9200141429901123,-4.079646110534668,-6.558359622955322,0.04445142088850883,-0.009609862975665382,2.383871932439671
0.11431825906038284,0.42499938607216003,9.797420501708984,0.0005489403265528381,-0.0007722810842096803,0.0014247882645577192,-2.9166455268859863,-4.077987194061279,-6.55999231338501,0.04449008376239128,-0.0096226827032367,2.3838555042386926
0.1013018861413002,0.44314157962799194,9.793488502502441,0.00022966545657254755,0.00018489453941583658,0.0020491769537329674,-2.912621021270752,-4.075893402099609,-6.561689853668213,0.04451712565556633,-0.009623786706132344,2.38384647812461
0.10502089560031891,0.4434911608695996,9.794454574584961,-7.286478648893535e-05,0.0003725212300196292,0.0018268423154950142,-2.909921407699585,-4.074402809143066,-6.562884330749512,0.04454150595939283,-0.009614499255109567,2.383832278682384
0.10345529764890671,0.43908128142356995,9.805987358093262,-0.0006836049724370241,0.00010554632171988509,0.001800975645892322,-2.9068965911865234,-4.073393821716309,-6.564240455627441,0.044565673648102724,-0.00958203183421387,2.3838103070790972
0.09924449771642685,0.4308075010776532,9.79331111907959,4.223102587275207e-05,6.349338218569766e-05,0.0009207990951836109,-2.903048038482666,-4.0732221603393555,-6.565989017486572,0.04457219145320133,-0.009596430821158741,2.383805783867266
0.09924449771642685,0.4308075010776532,9.79331111907959,4.223102587275207e-05,6.349338218569766e-05,0.0009207990951836109,-2.8984241485595703,-4.072964668273926,-6.568164348602295,0.04458083513850053,-0.009639540886491027,2.3837966901000507
0.09498513489961624,0.443907827138902,9.801874160766602,-0.00031843659235164523,0.00037040107417851703,0.0014987965114414692,-2.8952956199645996,-4.072757720947266,-6.56971549987793,0.04457743467634991,-0.009674912992334174,2.3837838371825795
0.0965019166469574,0.43880996108055237,9.78805923461914,-7.016133167780936e-05,0.0003021528245881202,0.0018365728901699185,-2.8913521766662598,-4.070866107940674,-6.5718560218811035,0.04458555428960534,-0.009697895189591431,2.383776895873196
0.09024983644485474,0.43463397026062134,9.797735214233398,0.00023549697652924806,0.0001958883367478849,0.0013510969001799822,-2.888657569885254,-4.069139003753662,-6.573487758636475,0.0445976633096303,-0.009679251255737143,2.3837655291591062
0.10122018307447433,0.43988931179046753,9.800292015075684,2.0558174583129585e-05,-0.00037890661042183627,0.0011020011734217405,-2.886209726333618,-4.0674920082092285,-6.574937343597412,0.04462950054645767,-0.009665205763860877,2.3837504626407315
0.10414213687181473,0.4441027045249951,9.798283576965332,-0.00017874385230243206,-0.0006243400275707244,0.0013068998232483864,-2.8839855194091797,-4.065912246704102,-6.576293468475342,0.04464394879477779,-0.0096446842687282,2.383739967427693
0.10441665351390839,0.43826484680175903,9.79578971862793,0.00022490111587103456,0.001025714445859194,0.0015967251965776084,-2.8816909790039062,-4.066035270690918,-6.577998638153076,0.044642720852620194,-0.009611101536821928,2.3837255204741603
0.10497881472110748,0.4384637176990521,9.798690795898438,-0.0003529908135533333,-0.0007177782244980333,0.0013391075190156698,-2.880185842514038,-4.06607723236084,-6.579091548919678,0.04460520494196309,-0.009605248688798673,2.3837201486477864
0.09895293414592743,0.4345536530017865,9.79776382446289,0.00082927115727216,-0.00020080304238945224,0.0017611721996217966,-2.878849744796753,-4.066080570220947,-6.580090045928955,0.04458193961755588,-0.009603686620447022,2.383711508858047
0.09684127569198608,0.43208575248718384,9.7957763671875,-0.0005337334587238729,0.00012465950567275297,0.0009846838656812906,-2.8776652812957764,-4.0660529136657715,-6.58107852935791,0.04453253220826822,-0.009594978928502544,2.3837097448621276
0.1062917485833168,0.4407169818878186,9.786437034606934,0.0001297591661568731,0.00022105860989540832,0.0013720467686653137,-2.8734538555145264,-4.064967632293701,-6.582424163818359,0.04451786360536962,-0.009604444478364645,2.3837052484854437
0.10585210472345352,0.4438881874084485,9.790773391723633,0.00022299858392216265,-0.0005571822402998803,0.0014472686452791095,-2.8706212043762207,-4.06417989730835,-6.583359718322754,0.04453428857840917,-0.009623801931038067,2.3837021709573287
0.0957283079624176,0.43260475993156555,9.7921781539917,0.00030499944114126265,0.0003317407099530103,0.0019089295528829098,-2.868032932281494,-4.063407897949219,-6.584562301635742,0.044557079234317475,-0.009633930845215747,2.3836943784398312
0.09729775786399841,0.44401589035987976,9.797869682312012,-0.0002027643786277622,0.0002178400754928591,0.001743901171721518,-2.8646717071533203,-4.063063144683838,-6.5861053466796875,0.04458291954179971,-0.00963880517859958,2.3836956952966872
0.09865212440490723,0.4372742772102368,9.789031028747559,0.0005849744193255901,-0.00019134941976517417,0.001661722781136632,-2.8622288703918457,-4.063263416290283,-6.5870137214660645,0.04457834622575668,-0.00965078876876005,2.3837048941961734
0.10767029970884323,0.43612757325172546,9.79859447479248,0.0007247852627187967,0.00044448976404964946,0.0017468126025050879,-2.8600077629089355,-4.063416957855225,-6.587495803833008,0.04457668291828192,-0.00967130766953003,2.383710212796015
0.10463986545801163,0.4417415261268628,9.796500205993652,-0.0005080989212729037,0.0001760984305292369,0.0009346300503239036,-2.8573572635650635,-4.0635552406311035,-6.587912082672119,0.04456724066581363,-0.009698235858662845,2.3837158106218754
0.09598445147275925,0.4438026547431958,9.79166030883789,0.00015387040912173688,-0.0004665569867938755,0.001746008638292551,-2.8555805683135986,-4.0636138916015625,-6.588123798370361,0.04455911296523779,-0.009705694566628278,2.3837130268088127
0.1014779806137085,0.4395720660686505,9.792546272277832,0.0006843736045993865,-3.3109914511442096e-05,0.0006972234696149826,-2.8555736541748047,-4.063362121582031,-6.588095664978027,0.044533718379901076,-0.009698213537813867,2.383723740525671
0.10257526487112045,0.43794316053390625,9.804008483886719,0.0001183295389637351,8.35224054753782e-05,0.0013383092591539025,-2.855632781982422,-4.063097953796387,-6.588071823120117,0.04448372675019619,-0.009652620900964283,2.3837274726317297
0.10297198593616486,0.4407509565353406,9.800949096679688,0.00013601647515315562,-9.095109999179818e-05,0.0017941934056580067,-2.855806350708008,-4.062721252441406,-6.588090896606445,0.044431550216687314,-0.009593298685304166,2.3837375493193935
0.09795139729976654,0.4428224265575421,9.7979736328125,0.00011941853153984994,0.0001005155500024559,0.0015508286887779832,-2.856003999710083,-4.062424659729004,-6.588159561157227,0.044407237013041556,-0.009563995512733462,2.383735971910296
0.1060110479593277,0.43740668892860535,9.798421859741211,-2.3577507818117738e-05,0.0005730080883949997,0.0015995027497410774,-2.8562510013580322,-4.06211519241333,-6.587677955627441,0.04437337159239618,-0.009528269652836747,2.3837368297842403
0.10345330089330673,0.43430238962173584,9.7893705368042,0.0005164379836060107,-0.00044339010491967185,0.0013821604661643505,-2.8566431999206543,-4.061681270599365,-6.587106227874756,0.0443641220766269,-0.009507205323271494,2.383748694636469
0.10475368797779083,0.43508487939834717,9.794994354248047,-0.0002081527200061828,0.0002767569385468961,0.0010192322079092264,-2.857301950454712,-4.060720443725586,-6.5871357917785645,0.044328990575897995,-0.009462373534370705,2.3837360159898298
0.11508770287036896,0.4315842986106885,9.792354583740234,-0.00015861535212025046,-0.0007831498514860866,0.001991964178159833,-2.8586127758026123,-4.05859375,-6.5878119468688965,0.044313546671501655,-0.009373756314526947,2.3837318900135624
0.10607241839170456,0.4408572316169751,9.794275283813477,-0.00017397574265487492,-0.00013792002573609328,0.0019048209069296718,-2.860344886779785,-4.0559210777282715,-6.588593006134033,0.044302588120600186,-0.0093402790955947,2.3837240120430665
0.0957597866654396,0.45082640647888306,9.78654956817627,-0.0010173714254051447,8.33774683997037e-05,0.0016513129230588675,-2.8616349697113037,-4.054028034210205,-6.589171886444092,0.04429528039664336,-0.009230224679676354,2.383717099075697
0.10432521998882294,0.44084429740905884,9.792806625366211,0.00031540077179670334,0.000710160762537271,0.0016172038158401847,-2.861638069152832,-4.0524678230285645,-6.589630126953125,0.04430054490427827,-0.009163647354794548,2.383697991328357
0.0966019481420517,0.4340561926364911,9.792163848876953,-0.0004614454519469291,0.0006762758712284268,0.0007221880368888377,-2.858522415161133,-4.051135063171387,-6.590043544769287,0.044343735289954715,-0.009173155916447897,2.3836839973223447
0.09773286432027817,0.4407823681831372,9.802486419677734,0.000871000811457634,0.0005543376901187005,0.0018709080759435892,-2.856455087661743,-4.050163269042969,-6.590413570404053,0.04436722065284934,-0.009190134656555974,2.383665003976154
0.09850259125232697,0.4282489120960248,9.799539566040039,-0.0007850490510463715,0.0005499899270944298,0.0012571420520544052,-2.8545877933502197,-4.0492143630981445,-6.590785980224609,0.04441866621501901,-0.00924056608180123,2.3836503054386955
0.09583695232868195,0.43049809336662415,9.800899505615234,0.00048748531844466925,-0.0011524474248290062,0.0008210447849705816,-2.8534607887268066,-4.049536228179932,-6.591194152832031,0.04443968764799461,-0.009289857430289842,2.3836392367976007
0.11022534966468811,0.4319530725479138,9.795433044433594,-0.00015895790420472622,0.00015494588296860473,0.0013863355852663517,-2.853027105331421,-4.050092697143555,-6.591468811035156,0.044429121822098544,-0.009314821290194356,2.383631390055095
0.09402446448802948,0.44036832451820496,9.79214859008789,-0.00025565343094058335,0.0001798729645088316,0.0009363675490021706,-2.852695941925049,-4.050583839416504,-6.591783046722412,0.04437943894408554,-0.009347009417932449,2.3836264429849554
0.10655637085437775,0.44583946466446045,9.795513153076172,0.00046668306458741426,0.0001268074847757817,0.0007180466782301664,-2.852461099624634,-4.051015853881836,-6.591935634613037,0.04434887417503423,-0.00937560164353371,2.383608700820434
0.10054680705070496,0.44011279940605286,9.789843559265137,-0.00011439764057286084,0.00011904025450348866,0.0009610022534616292,-2.8516547679901123,-4.050650596618652,-6.591824531555176,0.04429457828634424,-0.009392783147516936,2.383596663643112
0.10911302268505096,0.43057972192764404,9.79613971710205,-0.0007011659909039736,2.0232168026268594e-05,0.0009059408912435174,-2.8512003421783447,-4.050364971160889,-6.59176778793335,0.04425037997995787,-0.009393803596996566,2.3835808787601933
0.11038994789123535,0.4402151107788098,9.803515434265137,-0.0006216265028342605,0.0008856898639351131,0.0008643058827146887,-2.8508596420288086,-4.050069332122803,-6.5916852951049805,0.04422582566063447,-0.009387919301485458,2.3835752332386217
0.11086711287498474,0.43617218732833984,9.792262077331543,0.00026863301172852516,0.0006711836322210731,0.001834931317716837,-2.850619316101074,-4.049759864807129,-6.591672420501709,0.04420372165853569,-0.00938191710954999,2.383557030318172
0.10674567520618439,0.4400747120380414,9.787652969360352,-0.00043945942888967693,0.00028091063722968123,0.0017693430418148637,-2.8497939109802246,-4.051783084869385,-6.592173099517822,0.04415424086950604,-0.009395005381721992,2.3835344999370838
0.1033431887626648,0.4383242428302777,9.804727554321289,5.8065110351890326e-05,0.00017245206981897368,0.0011493010679259896,-2.849334478378296,-4.053155899047852,-6.592519760131836,0.044107218991523055,-0.009411514901979839,2.3835189642368237
0.09894473850727081,0.4351295828819287,9.798192977905273,0.0004336613055784255,7.313431706279527e-05,0.000914543925318867,-2.8489928245544434,-4.054416656494141,-6.592866897583008,0.04407270407964159,-0.009419337101464854,2.3835127451419766
0.09529192745685577,0.43426874279976013,9.794717788696289,0.0003244888212066144,-0.0003139148466289042,0.0011843169340863824,-2.8471574783325195,-4.055036544799805,-6.59259557723999,0.04402418898560914,-0.00944918858672245,2.3834963210418563
0.10837943106889725,0.4384989440441144,9.78230094909668,0.0001923572417581454,0.0003021246520802381,0.0015693906461820006,-2.844881534576416,-4.054792404174805,-6.592229843139648,0.04403560640462437,-0.009475611216204077,2.383485362906625
0.10570405423641205,0.43427306413650635,9.795825004577637,0.0004296409315429628,-0.00011659262236207705,0.001589862396940589,-2.8428468704223633,-4.0545477867126465,-6.592092514038086,0.04405589912416508,-0.009509567027574082,2.3834752365300296
0.10438337922096252,0.4510829746723187,9.790735244750977,-0.00019057659665122628,0.00047283503226935874,0.0010569480946287513,-2.8404695987701416,-4.0542144775390625,-6.591813564300537,0.04410262389026066,-0.009545958427745103,2.383455084450341
0.09867685288190842,0.45106494426727417,9.796661376953125,-0.00026558651006780565,0.0006973654963076117,0.0013435471337288618,-2.8389089107513428,-4.053951740264893,-6.591716289520264,0.044123847183244885,-0.00955939327591052,2.383449272695271
0.10590660572052002,0.42969760298729065,9.787261009216309,4.128116415813565e-05,3.9678765460848984e-05,0.001431154552847147,-2.8375887870788574,-4.055016994476318,-6.591529369354248,0.04414598764639178,-0.009577708598192548,2.383430069501962
0.09628914296627045,0.4419479072093976,9.798773765563965,0.0008415057091042399,0.00046746898442506796,0.00047693564556539053,-2.8364455699920654,-4.055994033813477,-6.591319561004639,0.044129659104354756,-0.00960052479358387,2.383407029161742
0.1019212007522583,0.43192106485366943,9.786263465881348,0.008857454173266888,-0.010456826537847519,-4.452944267541042e-05,-2.8351707458496094,-4.057173252105713,-6.590916633605957,0.044166974757692504,-0.009666120676573972,2.3833864153246322
0.08563678711652756,0.40808317065239075,9.825947761535645,-0.012425166554749012,0.004888701252639294,-0.0002316264435648924,-2.8332033157348633,-4.057495594024658,-6.590498447418213,0.04405907929664598,-0.0096197541704721,2.3833730524435817
0.07430072873830795,0.3888179361820233,9.809473037719727,0.0005720413755625486,-0.0013234606012701986,0.001792810391634703,-2.831460952758789,-4.057785987854004,-6.590138912200928,0.04414700149885339,-0.009700161073533086,2.3833537247453447
0.11760400235652924,0.44972386956215027,9.798864364624023,-0.0026153826620429754,-0.001524830237030983,0.0005334677407518031,-2.829463481903076,-4.0581254959106445,-6.589724540710449,0.04398333278914795,-0.009622642754373963,2.3833576968718804
0.11477217078208923,0.4564791321754468,9.775134086608887,-0.021108223125338554,0.010433264076709747,0.0020046124700456845,-2.827685594558716,-4.05800724029541,-6.589536666870117,0.043822625485824454,-0.009548544971808647,2.3833634523519023
0.08550009876489639,0.3927033543586743,9.830209732055664,0.008654794655740261,-0.00407790020108223,0.00016235990915447522,-2.8251307010650635,-4.057219505310059,-6.589543342590332,0.0440457124754532,-0.009672207253267803,2.38334113941641
0.1211395114660263,0.4824182987213147,9.755794525146484,-0.02076762355864048,0.013589492067694664,0.0011146060423925502,-2.822150707244873,-4.0562357902526855,-6.589521884918213,0.04402600718556101,-0.009667867074453204,2.383336073701778
0.0593331977725029,0.33550611138343933,9.835768699645996,0.033739712089300156,-0.004462706390768291,-0.016972865909337997,-2.820158004760742,-4.055518627166748,-6.589451789855957,0.04461014344856729,-0.0097137196108046,2.3830839755859703
0.22125165164470673,0.5354378223419202,9.701622009277344,-0.06164848059415817,0.007549555972218511,-0.02087254263460636,-2.818540096282959,-4.054311752319336,-6.589324474334717,0.042639723569527936,-0.008830222367275061,2.38232590101252
0.12385334074497223,0.34890541434288147,9.825410842895508,0.025935614481568336,-0.03018299303948879,0.015342547558248047,-2.81720232963562,-4.05215311050415,-6.589111804962158,0.04234010873865754,-0.008975179415238356,2.3822272877965807
0.17719697952270508,0.5684674978256238,9.721646308898926,-0.07423093914985657,0.031053468585014343,0.005540202837437388,-2.8157382011413574,-4.0494914054870605,-6.5887908935546875,0.042861952474195365,-0.009359745636051561,2.382407099571677
0.05334758013486862,0.37620800733566406,9.775331497192383,0.032610975205898285,-0.020266685634851456,-0.00042037107050418604,-2.8147876262664795,-4.047606945037842,-6.588481903076172,0.043465712599009054,-0.00972237601651861,2.3823079222820067
-0.05207213759422302,0.25559791922569397,9.83080005645752,0.08601602166891098,-0.04249687120318413,-0.004736866801977152,-2.8134188652038574,-4.046746253967285,-6.588706016540527,0.04372344897567902,-0.010057582233389477,2.382209606215681
0.17618578672409058,0.518823564052583,9.773499488830566,0.011461284942924976,0.008488606661558146,-0.040736787021160126,-2.8124897480010986,-4.046433925628662,-6.588935375213623,0.044679303351773184,-0.010399482473677949,2.381952686544868
0.11517368257045746,0.11849631369114046,10.119538307189941,0.4800474941730499,0.024828568100929246,-0.10650806874036789,-2.811598539352417,-4.045956611633301,-6.589067459106445,0.05294834759635434,-0.009912982407361864,2.3794004820382497
0.3258822560310364,0.24489726126194128,10.313067436218262,0.7114229202270508,0.0004377064760774349,-0.02045421116054058,-2.810837984085083,-4.045340538024902,-6.588883399963379,0.06524344901723289,-0.00932122890391713,2.3775375022298024
-0.7895718216896057,0.42484906315803656,10.46731948852539,0.6337780952453613,0.02561552450060847,0.19760467112064362,-2.8103995323181152,-4.043239593505859,-6.587744235992432,0.09490446806498298,-0.010456760300793986,2.3827936597081223
0.07694175094366074,1.359232306480409,10.404640197753906,0.7919787168502808,0.039364062249660506,0.12592920660972595,-2.81017804145813,-4.042072296142578,-6.585700035095215,0.12184493283337368,-0.010252604766279825,2.3874815498997077
0.2322434037923813,1.8787589073181166,10.717463493347168,0.9060348272323608,0.10514179617166522,0.17585381865501404,-2.8104584217071533,-4.0409932136535645,-6.582737445831299,0.1388753798151061,-0.009060175855396457,2.390762071600718
-0.3580839931964874,0.4358469545841228,9.021069526672363,-0.018691418692469597,-0.010457845404744127,0.1631353795528412,-2.8105483055114746,-4.039365768432617,-6.579806804656982,0.16312291398689047,-0.006808807223327607,2.398810695341317
0.2695542573928833,1.0472350120544447,10.36343765258789,-0.3933379054069519,-0.3775566816329956,0.018126828595995948,-2.810368537902832,-4.037479400634766,-6.575246334075928,0.1499649363053171,-0.015504872327831107,2.3994913867535197
-0.5739240646362305,0.9903609752655044,11.415284156799316,-0.5073264241218567,-0.1301472932100296,-0.05070312321186064,-2.809765577316284,-4.0360283851623535,-6.570228576660156,0.13616231109032906,-0.026731552444961715,2.3983458159264157
0.23244301974773407,1.3518670797348036,11.012232780456543,-0.416217178106308,0.0666529461741447,-0.2861645221710205,-2.8084590435028076,-4.034018516540527,-6.560685157775879,0.12388274179884302,-0.027528390360737082,2.3941910145330123
-0.22971504926681519,1.192390680313112,13.426427841186523,-0.34411582350730896,0.3645136952400207,-0.26623708009719854,-2.806273937225342,-4.032098770141602,-6.550172805786133,0.11203345991666602,-0.01840292651890007,2.38531232449634
-0.08204865455627441,1.0444848537445084,13.515137672424316,-0.3383803069591522,0.4612915217876434,-0.2780794501304627,-2.803493022918701,-4.029953956604004,-6.536055564880371,0.10509358987911058,-0.009642463238649965,2.3807282960177902
-0.31572356820106506,1.3778575658798233,13.41198444366455,-0.42957407236099243,0.5425803661346436,-0.21664158999919897,-2.8007545471191406,-4.028038024902344,-6.518525123596191,0.09108813156048479,0.012154047910600046,2.37183547046278
-0.2740612328052521,1.5885683298110977,12.956927299499512,-0.6165369749069214,0.6010738611221313,-0.08352883905172355,-2.797656297683716,-4.026020050048828,-6.490361213684082,0.06891592111617605,0.03382602976690531,2.3687171799057025
-0.5990861654281616,1.179359912872316,13.259496688842773,-0.8048931360244751,0.6154659390449524,-0.21933943033218392,-2.7956080436706543,-4.024509906768799,-6.4658522605896,0.05506408757903644,0.04638615110056689,2.366799966169261
-0.27712294459342957,0.36918237805366666,12.18779468536377,-0.9925068020820618,0.4153806567192077,-0.3327505290508271,-2.7957682609558105,-4.023950576782227,-6.443538665771484,0.014155988495096685,0.06848669118191683,2.354727933243652
-0.2757817506790161,0.3688961267471328,11.94687271118164,-0.6972986459732056,0.28714740276336664,-0.32848179340362554,-2.7965338230133057,-4.023311138153076,-6.418844223022461,-0.020184703059288427,0.08311465369974044,2.3420958148001345
-0.2784356474876404,0.04670502245426324,11.905778884887695,-0.7337104678153992,0.17651578783988947,-0.39027824997901917,-2.798292398452759,-4.021852493286133,-6.382406234741211,-0.051013004141174566,0.08992248567897217,2.3263275219394335
-0.7103368043899536,-1.0821449756622301,11.487896919250488,-0.4985470175743103,-0.017108950763940863,-0.4145985245704651,-2.8059513568878174,-4.017462253570557,-6.356753349304199,-0.06403383456828145,0.09025876917495322,2.317956999140537
0.3659456670284271,-1.3226653337478624,11.202402114868164,-0.2891312539577484,-0.3136781752109528,-0.3888689279556274,-2.8139047622680664,-4.012718677520752,-6.3291826248168945,-0.08059610318724622,0.0822016049506893,2.301698840487274
0.11784384399652481,-1.0095204114913927,10.545753479003906,-0.14126889407634735,-0.5322617888450623,-0.3426202833652496,-2.824453115463257,-4.005340576171875,-6.291038513183594,-0.0854627401096208,0.07317130956977536,2.294648389298846
0.7004824876785278,-1.2897851467132557,9.163037300109863,-0.004785091150552034,-0.9045863151550293,-0.2410803884267806,-2.832780361175537,-3.9987380504608154,-6.263818740844727,-0.08700417992793102,0.041755450203103714,2.2863621017516382
-0.4367225170135498,-1.51410412788391,9.35010051727295,0.5048903822898865,-0.48698255419731146,-0.40036958456039423,-2.8415367603302,-3.9910387992858887,-6.238594055175781,-0.07873388599585401,0.007023401559055577,2.2748868978131798
-0.37739986181259155,-1.5567450523376454,9.386731147766113,0.28321391344070435,-0.24022184312343603,-0.4059498310089111,-2.852181911468506,-3.9801251888275146,-6.203988552093506,-0.07221753432707187,0.001382602292398029,2.2690369902614433
1.065881371498108,-0.7031719088554371,9.427125930786133,-0.25068408250808716,-0.10060824453830723,-0.3322403132915497,-2.8603053092956543,-3.9711475372314453,-6.177511692047119,-0.07360704847184654,-0.007224689698196454,2.2531801712668855
0.5991331338882446,-1.1757746934890736,9.137617111206055,-0.2984504997730255,0.07197941094636914,-0.19291597604751587,-2.8672890663146973,-3.9618289470672607,-6.151611804962158,-0.08395386383020641,-0.009062953219434169,2.243538927353969
0.6511011123657227,-1.1777535676956166,8.586097717285156,-0.2329418659210205,0.2056040912866592,-0.18506486713886264,-2.873595714569092,-3.948674201965332,-6.120455741882324,-0.09095547907123998,-0.004103948407864746,2.2364145539522124
0.12487221509218216,-1.3493045568466178,7.716999053955078,0.2116084098815918,0.5596539378166199,-0.12934921681880956,-2.877908706665039,-3.938178777694702,-6.098184585571289,-0.09004590191117794,0.0026489566594011674,2.2331726993289243
-0.19547417759895325,-0.7468239068984975,7.744369029998779,0.3408401906490326,0.8304667472839355,-0.08115643262863169,-2.8819754123687744,-3.927541971206665,-6.076575756072998,-0.07835380926214344,0.03321491018349775,2.2269401269421123
1.176705002784729,-0.5813017487525931,7.480313301086426,0.4653688967227936,1.0098484754562378,0.0328225716948508,-2.8832485675811768,-3.917013168334961,-6.05776834487915,-0.07123760734504171,0.05268744036372748,2.224769853135894
0.9183233976364136,-0.08058811724185859,6.965606212615967,0.7183353900909424,0.8333776593208314,0.5031216144561766,-2.88486647605896,-3.9024698734283447,-6.036391735076904,-0.046904790318487634,0.09025152743608078,2.2331313075008232
0.20837187767028809,1.052724242210389,7.167138576507568,1.0026168823242188,0.8711923360824585,0.3917631208896636,-2.8880414962768555,-3.8914427757263184,-6.022631645202637,-0.0077549249405410425,0.12498104608572586,2.253699725982112
-0.002984248101711273,1.2630155086517343,7.271689414978027,0.7798052430152893,0.7735647559165955,0.10939240455627432,-2.892596483230591,-3.8804221153259277,-6.010655403137207,0.011704551393934467,0.14162808787610462,2.259395777644645
-0.7811357975006104,0.8188676834106455,8.013347625732422,0.45627927780151367,0.4468261897563934,-0.568183422088623,-2.894859790802002,-3.8640294075012207,-5.997763633728027,0.030879270721894773,0.16848507996716489,2.247893730818059
0.09940434247255325,1.4138141870498668,8.17116928100586,-0.08806715160608292,0.013643794693052698,-0.5854641795158386,-2.898423194885254,-3.85109806060791,-5.989810943603516,0.03441052971919689,0.1766986175346887,2.2231021483622966
-0.04110462963581085,0.16350382566452126,8.184568405151367,-0.11090339720249176,0.07091932743787759,-0.6112320423126221,-2.902780771255493,-3.8372600078582764,-5.9828267097473145,0.024950700582431092,0.18075783639118137,2.1972934220356177
-0.9640544652938843,-1.3182413578033438,8.047492980957031,0.13938197493553162,0.4337352216243743,-0.832132875919342,-2.906373977661133,-3.816467523574829,-5.975241661071777,0.022619912472407154,0.18873963652792006,2.180767354009627
-0.6274863481521606,-0.27805671095847984,8.289016723632812,0.24563021957874298,0.30021262168884266,-0.9234108924865723,-2.9052350521087646,-3.7976033687591553,-5.969408988952637,0.023197181970168703,0.20437780113755802,2.1465490636308475
0.25804340839385986,0.5696219801902782,9.1599760055542,0.35033002495765686,0.31347557902336115,-0.5990740060806274,-2.9057912826538086,-3.777552604675293,-5.9641523361206055,0.027617277353607316,0.21247936102393616,2.1272681047604634
0.13209661841392517,1.201340436935426,8.414063453674316,0.4476034641265869,0.43275353312492365,-0.3387271165847779,-2.9088056087493896,-3.756618022918701,-5.9600300788879395,0.03948277401949948,0.22724825462288237,2.111563963206928
0.09871803224086761,1.407207727432252,9.44690227508545,0.44184568524360657,0.38600897789001465,-0.12870638072490698,-2.9127702713012695,-3.728994131088257,-5.953674793243408,0.05780971891913671,0.2436739413920313,2.103230991144168
-1.2735406160354614,1.0172232389450084,9.112072944641113,0.33818089962005615,0.5721407532691956,-0.18612897396087655,-2.914659261703491,-3.7089529037475586,-5.94827127456665,0.06314723108851243,0.2509316302740227,2.10105067009284
-1.3252562284469604,1.7233710289001476,9.137945175170898,0.26702529191970825,0.869001567363739,-0.3651662766933442,-2.918907880783081,-3.6884453296661377,-5.943321704864502,0.07443978594033229,0.28765912739813815,2.089722515726126
-1.5140448808670044,1.4019086360931408,9.07270622253418,0.10216249525547028,0.8096986413002014,-0.31151825189590465,-2.9253971576690674,-3.6672887802124023,-5.9390177726745605,0.07603697211364993,0.3176606803318727,2.0780741315386395
-2.3581180572509766,1.65027952194214,10.050104141235352,0.24250528216362,0.5304386615753174,-0.10631502419710166,-2.9368550777435303,-3.6383140087127686,-5.933654308319092,0.08266724774334822,0.34739181489942245,2.0718243646358823
-2.9611082077026367,1.3397330045700087,10.418825149536133,0.01854846067726612,0.37242257595062256,-0.12479235976934437,-2.9410738945007324,-3.6169586181640625,-5.926410675048828,0.0851358076615207,0.3568553754507143,2.070188742536435
-3.4756596088409424,0.2319224029779446,9.61579704284668,-0.27365031838417053,0.12397909909486769,-0.15910798311233523,-2.947988271713257,-3.5880305767059326,-5.916107177734375,0.0760211579178345,0.3676898315409428,2.0641424064258413
-3.5291357040405273,0.31368255615234486,9.252971649169922,-0.24574041366577148,0.0023199659772217035,-0.1937885582447052,-2.954070568084717,-3.5658841133117676,-5.908632278442383,0.06952695139589193,0.369239649056588,2.060380997047733
-3.083538293838501,0.19407682120800127,8.7531156539917,-0.18016305565834045,0.05487281456589695,-0.2611592411994934,-2.9597339630126953,-3.5419857501983643,-5.900857925415039,0.05670636102051792,0.36934340056664383,2.0499745548716897
-3.2511677742004395,-0.5482714176177967,8.787869453430176,0.12871356308460236,0.21432983875274655,-0.1776012629270554,-2.9655954837799072,-3.517652750015259,-5.8939528465271,0.05221989488751791,0.3758429445121582,2.040010972588497
-3.048649549484253,-0.32955995202064414,8.367676734924316,0.19594238698482513,0.20145334303379056,-0.1219514459371567,-2.9739127159118652,-3.484497308731079,-5.886833667755127,0.0545282549611811,0.38022629962544197,2.036924288090604
-2.8305087089538574,0.047795951366425574,8.252706527709961,0.22452470660209656,0.102814644575119,-0.10403170436620714,-2.9809861183166504,-3.458649158477783,-5.882097244262695,0.06211173310118427,0.38616257888022676,2.032328735273958
-3.001647472381592,0.009135496802629069,8.393848419189453,0.28359898924827576,0.09024691581726073,-0.10717062652111055,-2.9889638423919678,-3.4314987659454346,-5.877161979675293,0.07170948982239031,0.3902099778865876,2.0274763345567584
-2.8361473083496094,0.2092093080282222,8.81745433807373,0.3125491738319397,-0.023533515632152585,-0.23409271240234375,-3.000530481338501,-3.394242763519287,-5.871475696563721,0.08022921249571187,0.3900430089640895,2.019094217191988
-2.5549476146698,0.37393668293953053,8.898941993713379,0.5279413461685181,-0.44965773820877075,-0.19564136862754816,-3.0100808143615723,-3.3651909828186035,-5.868171691894531,0.08959005923096965,0.38282160880961696,2.0122997805783696
-1.7104865312576294,0.7252762317657482,8.749360084533691,0.743395209312439,-0.7994620203971863,-0.06804541498422613,-3.02181339263916,-3.3362603187561035,-5.864442348480225,0.1082978001060399,0.3608209393038964,2.0042429513925777
-1.5113493204116821,0.97655349969864,8.841533660888672,0.8503199815750122,-0.8236727714538574,0.013607476837933164,-3.037142753601074,-3.3086020946502686,-5.858841419219971,0.12330358084717687,0.3444245816586597,2.001440951424948
-1.4327667951583862,1.2757090330123912,8.979071617126465,0.8927161693572998,-0.5643747448921204,0.17021931707859045,-3.0589005947113037,-3.2695424556732178,-5.853209495544434,0.1623740505054142,0.3115335925543548,2.000624041698325
-1.8335673809051514,1.8004788160324108,9.264342308044434,0.8797318339347839,-0.40130457282066345,0.2212109416723252,-3.0760512351989746,-3.2392146587371826,-5.849523544311523,0.1936568265928949,0.2970056482008761,2.0063268934027394
-2.8849411010742188,1.9479728937149061,10.404476165771484,-0.017154449597001076,0.2896798253059388,0.44527983665466303,-3.1002447605133057,-3.200751304626465,-5.837636470794678,0.21072381772915882,0.29651516155943525,2.021912158579567
-3.0577564239501953,2.042642116546632,10.40529727935791,-0.20081719756126404,0.33812338113784796,0.4191532731056213,-3.1187117099761963,-3.1719107627868652,-5.826924800872803,0.2116917204981721,0.3010480279495686,2.032500821711632
-2.925964593887329,2.155575275421144,10.36622142791748,-0.30262523889541626,0.13981623947620395,0.14609500765800473,-3.137331008911133,-3.142524003982544,-5.81608772277832,0.20481678784551274,0.3079296603297035,2.0462197702188964
-3.689639091491699,2.0735313892364515,10.244009971618652,-0.4152175784111023,0.22424840927124023,0.1055168956518173,-3.155565023422241,-3.113131523132324,-5.804959297180176,0.19858197022191962,0.3105446867932103,2.0496556393604792
-3.626899480819702,1.1854757070541395,10.177736282348633,-0.6747591495513916,0.5113043189048767,-0.029056800529360834,-3.185411214828491,-3.0742344856262207,-5.786018371582031,0.17784320348719423,0.3256323489114142,2.053334217915762
-3.2833659648895264,1.4533742666244518,9.63155746459961,-0.5646798610687256,0.5259546637535095,-0.02471423521637923,-3.2089548110961914,-3.0446503162384033,-5.771278381347656,0.15182508217857552,0.34681734007837606,2.054877951643134
-3.101627826690674,1.3234596252441417,9.318914413452148,-0.4370819330215454,0.496794193983078,0.07248369604349131,-3.2321114540100098,-3.014677047729492,-5.757641792297363,0.14200711234337693,0.3570138215527263,2.0569146982905115
-3.0336413383483887,1.0094908475875866,8.261595726013184,-0.24017742276191711,0.18232290446758273,0.24863526225090024,-3.2549307346343994,-2.9843008518218994,-5.745674133300781,0.13485538631719018,0.371124359608725,2.0675648683954164
-3.0757343769073486,1.2898958921432506,8.530139923095703,-0.26140138506889343,-0.06839920580387115,0.030362337827682502,-3.2857725620269775,-2.943063497543335,-5.72969913482666,0.12522873073287233,0.3708425517101094,2.073258999999155
-2.8906795978546143,1.1995476484298717,8.359972953796387,-0.06898101419210434,-0.06470465660095213,0.11734256893396379,-3.308896541595459,-2.9117491245269775,-5.719486713409424,0.12037334787226336,0.3688453653660351,2.0747743761088513
-2.6144518852233887,1.075427532196046,8.351717948913574,-0.0667683482170105,-0.15598236024379727,0.17912188172340396,-3.339810371398926,-2.8690731525421143,-5.7082366943359375,0.12007457976867145,0.36572049339282797,2.078391933653363
-2.3907766342163086,1.1504952907562265,8.128079414367676,-0.19506368041038513,-0.14571759104728696,0.14507830142974856,-3.36285400390625,-2.8357810974121094,-5.700907230377197,0.11751034994029097,0.3585275499679165,2.0839102687035114
-2.3219149112701416,1.3557074069976818,8.248655319213867,-0.2159503996372223,-0.034739494323730455,0.09948443621397018,-3.386218786239624,-2.801658868789673,-5.694742679595947,0.11423059469747072,0.35613588141189895,2.086287816704442
-2.1892197132110596,1.2969490289688121,8.81050968170166,-0.19303758442401886,0.1380597949028015,0.06884878873825072,-3.4101438522338867,-2.766796588897705,-5.689934730529785,0.10650031414388629,0.3573351358386239,2.0897027292389163
-2.286776065826416,1.1375186443328869,9.058844566345215,-0.2106878012418747,0.05074012279510498,0.016651956364512437,-3.442711591720581,-2.7189242839813232,-5.6851325035095215,0.09882145191933245,0.36128072514030163,2.0929116676661987
-2.4140591621398926,1.013377070426942,9.457245826721191,-0.11986549943685532,-0.0005860253004357284,-0.05268177017569542,-3.467527151107788,-2.682044506072998,-5.6821675300598145,0.09526251551335406,0.3619237917103553,2.0925283086769797
-3.0815048217773438,0.8851404190063489,10.03624439239502,-0.07984492182731628,-0.039219874888658544,-0.17293289303779602,-3.489548921585083,-2.643263101577759,-5.6780805587768555,0.09018715937622968,0.36132483147219774,2.0875446158438926
-3.6350648403167725,0.6459273099899305,10.466717720031738,-0.1368163526058197,-0.10075727105140689,-0.26211994886398315,-3.5102388858795166,-2.603487491607666,-5.672975063323975,0.08264294412962729,0.3597978518620932,2.077430484893664
-3.6445343494415283,0.3518167436122907,10.442514419555664,-0.09496845304965973,-0.11902846395969394,-0.20517337322235105,-3.537724494934082,-2.5499980449676514,-5.665088653564453,0.0737356829892295,0.3547299415587933,2.066357789188983
-4.521687984466553,0.18984626233577853,10.298993110656738,0.04613068327307701,0.08747950941324231,-0.25946494936943054,-3.5616419315338135,-2.5074305534362793,-5.657574653625488,0.07156426702383824,0.3546892140577744,2.061319385206835
-4.699484348297119,0.2100961208343519,10.590628623962402,-0.006167885847389698,0.19263190031051633,-0.3252924680709839,-3.584630012512207,-2.4654035568237305,-5.648841857910156,0.06828760287211558,0.3631463647705071,2.048210409760611
-4.998440742492676,0.07257277518510942,10.071255683898926,0.05048779398202896,0.14331591129302976,-0.30579689145088196,-3.613752603530884,-2.410510778427124,-5.635986804962158,0.06631777716910181,0.3670596139083073,2.0414041909868565
-4.343523979187012,0.2850137650966656,9.4218168258667,0.167172372341156,0.026406319811940165,-0.24013666808605194,-3.6327733993530273,-2.369784116744995,-5.626406669616699,0.06662568695561312,0.37121966184203276,2.029581378375797
-3.5857784748077393,0.16695064306259258,8.409262657165527,0.14942017197608948,0.011083691380917991,-0.2767338454723358,-3.647517204284668,-2.3290019035339355,-5.617731094360352,0.0697576465647377,0.37203034305719224,2.0182337597913453
-3.202958106994629,0.33445391058921914,8.032459259033203,0.1282646358013153,0.06920539587736126,-0.2846910059452057,-3.6673583984375,-2.2748236656188965,-5.608272075653076,0.0702846018850189,0.3728585441927882,2.013554409663291
-2.85330867767334,0.5835777521133433,7.92016077041626,0.1007072776556015,0.14537763595581052,-0.25860416889190674,-3.682631492614746,-2.234135150909424,-5.602926254272461,0.07000156797693208,0.3791567844492285,1.9997054835460422
-2.5077402591705322,0.560015082359315,7.883899211883545,0.2986413836479187,0.06932023912668225,-0.18113000690937042,-3.698040723800659,-2.1929104328155518,-5.599332332611084,0.0740981045873994,0.3839069456331981,1.9912613006972337
-2.428446054458618,0.5552297830581675,8.354193687438965,0.20206882059574127,-0.041821639984846136,-0.15989598631858826,-3.7185652256011963,-2.136496067047119,-5.597026824951172,0.08289230960467209,0.3850811252454159,1.9836738892829342
-2.4735770225524902,0.6855193376541148,8.527917861938477,0.13872988522052765,-0.04992355778813364,-0.14181195199489594,-3.7346365451812744,-2.0935068130493164,-5.5964484214782715,0.08502048112051025,0.38434523213177707,1.9799541267870628
-2.512334108352661,1.1406166553497326,9.290823936462402,0.1862301379442215,-0.14713582396507263,0.0062524420209229175,-3.7515509128570557,-2.0498735904693604,-5.5963592529296875,0.08998844157367794,0.3817514658116561,1.9755745432029221
-2.6940724849700928,1.1299402713775646,9.429912567138672,0.20717157423496246,-0.28366270661354065,0.10534571856260304,-3.7697200775146484,-2.0054826736450195,-5.59613037109375,0.09426081603430736,0.3774937812422188,1.9760181693935155
-3.453092575073242,1.229209065437318,9.56153678894043,0.03638710826635361,-0.3497467339038849,0.12444251775741581,-3.7950406074523926,-1.9462608098983765,-5.595211029052734,0.10225673340576631,0.3629871082994299,1.9802509518344484
-4.341408729553223,1.5220402479171766,9.978787422180176,-0.16293704509735107,-0.060191906988620744,0.11678771674633028,-3.8144631385803223,-1.9026389122009277,-5.593597412109375,0.09897370394201586,0.3531916110690643,1.9830412571003269
-4.341408729553223,1.5220402479171766,9.978787422180176,-0.16293704509735107,-0.060191906988620744,0.11678771674633028,-3.8343067169189453,-1.8599879741668701,-5.590941905975342,0.09738949895433077,0.35277693690338235,1.9858660380247557
-5.095573902130127,1.6960296630859386,9.363838195800781,-0.10683289170265198,0.31029617786407476,0.28675305843353266,-3.85649037361145,-1.8058542013168335,-5.585901737213135,0.09934642175393234,0.3578693037179126,1.9984283947851076
-4.876202583312988,1.232806444168092,9.821632385253906,-0.38480517268180847,0.5084609985351562,0.22415529191493982,-3.873270273208618,-1.766615390777588,-5.5811381340026855,0.0925474270204913,0.37374626292180707,2.0102575506665468
-5.132400035858154,1.4145016670227062,9.477590560913086,-0.1328471153974533,0.44808512926101685,0.13769763708114618,-3.8902502059936523,-1.7286770343780518,-5.575189113616943,0.08583432777612589,0.39331963027447103,2.0194620641934735
-4.633738994598389,1.4668229818344127,9.378092765808105,-0.06268054246902466,0.2758640646934509,0.1391966342926025,-3.913878917694092,-1.6792933940887451,-5.566853046417236,0.08539040901828848,0.40037822594599753,2.022824300662394
-3.9230427742004395,1.114681124687196,8.641279220581055,-0.03331288695335388,-0.025848345831036543,0.21179957687854767,-3.9326887130737305,-1.6423248052597046,-5.56152868270874,0.08625530172019816,0.4039935055338783,2.0292663358789844
-3.4028451442718506,1.0958995819091808,8.291667938232422,0.013396156020462513,-0.09456869959831235,0.2545495331287384,-3.952134847640991,-1.6054662466049194,-5.5569610595703125,0.08839804617521398,0.40190560745540505,2.035114319368823
-2.6092309951782227,1.1265180110931405,7.549100875854492,0.027616724371910095,-0.09883242100477214,0.2891002595424652,-3.972338914871216,-1.568461537361145,-5.553902626037598,0.09338714201928167,0.397245611986094,2.0450712272685396
-2.161656618118286,0.8603727817535409,7.650608539581299,-0.0997888520359993,-0.06263068318367002,0.21298740804195404,-3.998744010925293,-1.5164121389389038,-5.552879333496094,0.09712560063634446,0.39262656464894946,2.0568350976506737
-2.046272039413452,0.838517963886262,7.763656139373779,-0.1297292709350586,-0.05775036662816999,0.1725562959909439,-4.0182719230651855,-1.47523832321167,-5.554217338562012,0.09646757771107387,0.39143364420171994,2.059700634195969
-2.2154622077941895,0.9191723465919505,8.140159606933594,-0.009278793819248676,-0.006248588673770406,0.17426827549934387,-4.038658142089844,-1.4335108995437622,-5.556816577911377,0.09565415534632773,0.38929056865519285,2.0673211390622486
-2.709949016571045,1.0366504192352306,9.288302421569824,0.1552734524011612,-0.028878733515739427,0.10133170336484909,-4.067071437835693,-1.3770488500595093,-5.560656547546387,0.1007993271612153,0.3887970169595009,2.07228424188561
-3.4036526679992676,1.0093376636505138,9.745694160461426,0.14577166736125946,-0.10336858034133913,-0.07976548373699187,-4.089097499847412,-1.3342803716659546,-5.563110828399658,0.1084447686624784,0.3860579479464163,2.0729708806576848
-3.9253463745117188,1.0073404312133802,10.192733764648438,0.04903794080018997,-0.12010622024536136,-0.21884310245513913,-4.112432956695557,-1.297577142715454,-5.562514781951904,0.10940392616911863,0.3840804831137737,2.0694890410481053
-4.487528324127197,0.6512784361839308,10.5535888671875,0.016075951978564262,-0.18319661915302282,-0.4425937831401825,-4.143102645874023,-1.2483206987380981,-5.559671401977539,0.10376334662093867,0.3797046835562373,2.053098327027828
-4.94212007522583,0.29611283540725836,10.227901458740234,-0.040257956832647324,-0.10147064924240118,-0.40453264117240906,-4.164947509765625,-1.211970329284668,-5.555899620056152,0.09996110162244691,0.3772032721820407,2.043277148015364
-6.332249641418457,0.15726341307163366,10.38206958770752,-0.13914227485656738,0.35221859812736506,-0.5053521394729614,-4.181756496429443,-1.1759254932403564,-5.550037860870361,0.08923839572503496,0.38408197482340256,2.0244915297819968
-5.365276336669922,0.10072368383407716,10.064359664916992,-0.10185974091291428,0.1818706095218658,-0.427799791097641,-4.197766304016113,-1.1405301094055176,-5.542741775512695,0.0764592443308018,0.3991594078237121,2.0030198331095437
-4.826887607574463,0.09443576633930317,9.116193771362305,-0.06557181477546692,0.04999068006873127,-0.30381202697753906,-4.218380928039551,-1.093823790550232,-5.533012866973877,0.07163012248982677,0.40183132556179973,1.9949442240521573
-3.762737989425659,0.1306833624839793,8.314152717590332,0.10467930138111115,0.20178592205047607,-0.04666424915194514,-4.234227657318115,-1.0591390132904053,-5.527140140533447,0.06968947978790606,0.40579527334930415,1.9882650122451127
-3.7100512981414795,0.4737444221973429,8.355253219604492,0.18592528998851776,0.20937480032443997,-0.11475547403097155,-4.251269817352295,-1.0250918865203857,-5.522916793823242,0.07540416166172673,0.41572089914724103,1.9857994167052435
-3.311293363571167,0.5649504661560069,8.415571212768555,0.1684706211090088,-0.07549143582582477,-0.179461270570755,-4.274199485778809,-0.9791350960731506,-5.5184760093688965,0.07894327699465385,0.41860173261266165,1.979463504141163
-3.0764260292053223,0.5771856307983408,8.281012535095215,0.1490933895111084,-0.14050912857055667,-0.14879569411277768,-4.291694641113281,-0.9439733624458313,-5.516119956970215,0.08100770946126043,0.4160702801297076,1.974300137985972
-2.893662929534912,0.5913028717041026,8.348315238952637,0.1265944242477417,-0.09877047687768938,-0.08817721903324126,-4.307674884796143,-0.9075952172279358,-5.515059471130371,0.08346203209957875,0.4119679108748308,1.969189109789774
-2.9686498641967773,0.5604017376899729,8.464520454406738,0.17099708318710327,-0.08816514909267427,-0.07169249653816222,-4.324892044067383,-0.8566756248474121,-5.515749454498291,0.08558341183503143,0.4102370916686616,1.9670104603657288
-2.851752281188965,0.4900230169296276,8.921928405761719,0.20708099007606506,-0.2184225469827652,-0.04225655645132062,-4.338376998901367,-0.817491352558136,-5.51677131652832,0.09242541952510612,0.40494410387839364,1.9637395871997756
-2.749134063720703,0.6921454668045055,8.675688743591309,0.1770225167274475,-0.24213097989559174,-0.001974526327103347,-4.352405071258545,-0.777518630027771,-5.518362522125244,0.09968195713039477,0.3943390207708132,1.9610506190714614
-3.1752614974975586,0.9729399085044872,8.869271278381348,0.17070040106773376,-0.12770532071590424,0.042170539498329176,-4.364704608917236,-0.7368260025978088,-5.51966667175293,0.10317106140088532,0.39034003444463106,1.9607554183443716
-4.05695915222168,1.1281732320785534,9.786604881286621,0.11231761425733566,-0.07068203389644621,0.15038378536701202,-4.380478382110596,-0.682361364364624,-5.519962310791016,0.11134145854266798,0.3876185569857562,1.9645247323642197
